time,ax,ay,az,atotal
0.000,0.83,-0.07,0.47,0.96
0.010,0.78,-0.04,0.63,1.00
0.020,0.81,-0.10,0.74,1.10
0.030,1.01,-0.10,0.76,1.27
0.040,1.10,-0.08,0.60,1.26
0.051,1.03,-0.03,0.35,1.09
0.060,0.85,-0.10,0.22,0.89
0.071,0.65,-0.31,0.07,0.73
0.081,0.47,-0.44,-0.19,0.67
0.091,0.35,-0.41,-0.42,0.68
0.101,0.36,-0.30,-0.52,0.70
0.111,0.43,-0.27,-0.32,0.60
0.121,0.48,-0.35,0.14,0.62
0.131,0.40,-0.48,0.42,0.75
0.141,0.29,-0.58,0.44,0.78
0.151,0.20,-0.58,0.19,0.64
0.161,0.12,-0.49,-0.15,0.53
0.172,0.06,-0.39,-0.34,0.53
0.182,-0.02,-0.34,-0.22,0.41
0.192,-0.06,-0.45,0.08,0.46
0.202,-0.07,-0.64,0.45,0.79
0.212,-0.12,-0.82,1.00,1.30
0.222,-0.20,-1.12,1.39,1.79
0.232,-0.27,-1.42,1.47,2.06
0.242,-0.37,-1.51,1.47,2.14
0.252,-0.47,-1.54,1.34,2.10
0.262,-0.54,-1.60,1.00,1.96
0.272,-0.53,-1.52,0.60,1.71
0.282,-0.49,-1.27,0.39,1.41
0.292,-0.43,-1.00,0.37,1.15
0.302,-0.29,-0.84,0.47,1.01
0.312,-0.17,-0.79,0.55,0.98
0.323,-0.17,-0.84,0.47,0.98
0.333,-0.27,-0.89,0.33,0.99
0.343,-0.50,-0.92,0.28,1.08
0.353,-0.86,-1.01,0.30,1.36
0.363,-1.10,-1.05,0.33,1.56
0.373,-1.33,-1.07,0.38,1.75
0.383,-1.47,-1.08,0.44,1.88
0.393,-1.48,-1.01,0.58,1.88
0.403,-1.38,-0.94,0.76,1.84
0.413,-1.10,-0.78,1.08,1.73
0.423,-0.73,-0.55,1.46,1.73
0.434,-0.40,-0.39,1.59,1.69
0.443,0.02,-0.27,1.32,1.35
0.454,0.30,-0.24,0.75,0.84
0.464,0.19,-0.33,0.10,0.39
0.474,-0.16,-0.50,-0.35,0.63
0.484,-0.51,-0.73,-0.51,1.03
0.494,-0.76,-0.97,-0.42,1.30
0.504,-0.86,-1.17,-0.12,1.45
0.514,-0.74,-1.21,0.16,1.43
0.524,-0.46,-1.11,0.26,1.23
0.534,-0.03,-0.83,0.16,0.84
0.544,0.37,-0.37,-0.03,0.52
0.555,0.62,0.06,-0.19,0.65
0.564,0.79,0.29,-0.37,0.92
0.575,0.77,0.29,-0.47,0.95
0.585,0.47,0.21,-0.39,0.65
0.595,0.12,0.07,-0.19,0.24
0.605,-0.10,-0.17,-0.04,0.20
0.615,-0.21,-0.42,-0.00,0.47
0.625,-0.30,-0.52,-0.01,0.59
0.635,-0.29,-0.46,-0.07,0.55
0.645,-0.09,-0.34,-0.15,0.38
0.655,0.20,-0.18,-0.27,0.38
0.665,0.42,-0.01,-0.43,0.60
0.675,0.61,0.07,-0.66,0.90
0.685,0.72,0.16,-0.89,1.16
0.696,0.75,0.27,-1.04,1.31
0.705,0.72,0.22,-1.16,1.38
0.716,0.58,0.15,-1.19,1.33
0.726,0.44,0.05,-1.03,1.12
0.736,0.31,-0.07,-0.69,0.76
0.746,0.34,-0.19,-0.27,0.47
0.756,0.42,-0.28,0.06,0.50
0.766,0.55,-0.30,0.17,0.65
0.776,0.62,-0.26,0.13,0.68
0.786,0.59,-0.11,-0.03,0.60
0.796,0.51,-0.04,-0.20,0.55
0.806,0.39,-0.04,-0.38,0.54
0.817,0.24,-0.04,-0.47,0.53
0.826,0.04,-0.07,-0.41,0.42
0.837,-0.11,-0.14,-0.25,0.30
0.847,-0.21,-0.23,0.01,0.31
0.857,-0.26,-0.29,0.16,0.42
0.867,-0.20,-0.35,0.22,0.46
0.877,-0.13,-0.35,0.16,0.41
0.887,-0.03,-0.30,0.04,0.30
0.897,0.09,-0.21,-0.09,0.25
0.907,0.12,-0.11,-0.22,0.27
0.917,0.09,-0.12,-0.37,0.40
0.927,-0.02,-0.16,-0.41,0.44
0.938,-0.06,-0.18,-0.38,0.42
0.947,0.01,-0.13,-0.39,0.41
0.958,0.10,-0.09,-0.40,0.42
0.968,0.13,-0.03,-0.37,0.40
0.978,0.15,0.03,-0.32,0.36
0.988,0.23,0.06,-0.31,0.39
0.998,0.29,0.12,-0.36,0.48
1.008,0.25,0.14,-0.40,0.50
1.018,0.20,0.17,-0.44,0.51
1.028,0.13,0.17,-0.51,0.56
1.038,0.03,0.15,-0.60,0.62
1.048,-0.01,0.16,-0.68,0.69
1.058,0.08,0.25,-0.72,0.77
1.068,0.19,0.34,-0.64,0.75
1.079,0.31,0.39,-0.48,0.69
1.089,0.48,0.37,-0.39,0.72
1.099,0.55,0.36,-0.38,0.76
1.109,0.51,0.36,-0.40,0.74
1.119,0.42,0.46,-0.51,0.80
1.129,0.42,0.57,-0.67,0.97
1.139,0.54,0.72,-0.81,1.21
1.149,0.59,0.86,-0.82,1.33
1.159,0.58,0.92,-0.72,1.30
1.169,0.64,0.90,-0.52,1.22
1.179,0.72,0.84,-0.30,1.15
1.189,0.73,0.82,-0.09,1.10
1.200,0.66,0.78,0.09,1.02
1.209,0.60,0.72,0.20,0.96
1.220,0.57,0.69,0.25,0.93
1.230,0.49,0.72,0.29,0.92
1.240,0.46,0.77,0.27,0.94
1.250,0.50,0.87,0.22,1.02
1.260,0.51,0.95,0.22,1.10
1.270,0.47,0.96,0.22,1.09
1.280,0.49,0.92,0.27,1.07
1.290,0.55,0.84,0.29,1.04
1.300,0.56,0.77,0.30,1.00
1.310,0.56,0.80,0.21,1.00
1.320,0.56,0.84,0.06,1.02
1.330,0.54,0.91,-0.18,1.07
1.341,0.44,0.99,-0.35,1.14
1.351,0.29,1.02,-0.47,1.16
1.361,0.17,1.02,-0.57,1.18
1.371,0.07,1.04,-0.69,1.25
1.381,0.02,1.06,-0.77,1.31
1.391,-0.01,1.09,-0.83,1.37
1.401,0.02,1.11,-0.84,1.39
1.411,0.11,1.12,-0.83,1.40
1.421,0.22,1.16,-0.80,1.42
1.431,0.29,1.14,-0.75,1.39
1.441,0.32,1.03,-0.71,1.29
1.451,0.28,0.93,-0.73,1.21
1.462,0.20,0.83,-0.69,1.10
1.472,0.19,0.80,-0.65,1.04
1.482,0.18,0.73,-0.57,0.94
1.492,0.20,0.64,-0.41,0.78
1.502,0.26,0.59,-0.23,0.69
1.512,0.33,0.56,-0.12,0.66
1.522,0.39,0.52,-0.02,0.65
1.532,0.47,0.51,0.02,0.69
1.542,0.52,0.49,-0.09,0.72
1.552,0.50,0.51,-0.33,0.79
1.562,0.37,0.48,-0.62,0.87
1.572,0.23,0.44,-0.86,0.99
1.583,0.13,0.35,-1.09,1.15
1.592,0.08,0.28,-1.24,1.27
1.603,0.08,0.27,-1.26,1.29
1.613,0.12,0.24,-1.13,1.16
1.623,0.23,0.18,-0.83,0.88
1.633,0.24,0.03,-0.37,0.44
1.643,0.16,-0.15,0.12,0.25
1.653,0.04,-0.35,0.47,0.59
1.663,-0.09,-0.53,0.70,0.88
1.673,-0.20,-0.65,0.80,1.05
1.683,-0.24,-0.68,0.82,1.09
1.693,-0.17,-0.67,0.77,1.04
1.703,-0.05,-0.63,0.64,0.90
1.713,0.09,-0.55,0.46,0.72
1.724,0.22,-0.44,0.25,0.55
1.734,0.31,-0.36,-0.03,0.47
1.744,0.30,-0.31,-0.31,0.54
1.754,0.19,-0.28,-0.55,0.65
1.764,0.09,-0.27,-0.71,0.76
1.774,-0.02,-0.23,-0.75,0.78
1.784,-0.02,-0.18,-0.71,0.73
1.794,-0.07,-0.19,-0.64,0.67
1.804,-0.13,-0.17,-0.55,0.59
1.814,-0.07,-0.11,-0.51,0.53
1.824,0.03,-0.06,-0.50,0.50
1.834,0.12,0.00,-0.49,0.50
1.844,0.17,0.05,-0.49,0.52
1.854,0.24,0.06,-0.52,0.57
1.865,0.26,0.08,-0.46,0.53
1.875,0.26,0.08,-0.32,0.42
1.885,0.21,0.04,-0.13,0.25
1.895,0.18,-0.01,0.09,0.21
1.905,0.14,-0.08,0.25,0.30
1.915,0.08,-0.12,0.29,0.32
1.925,0.02,-0.12,0.25,0.28
1.935,-0.04,-0.09,0.15,0.18
1.945,-0.07,-0.06,0.02,0.09
1.955,-0.09,-0.05,-0.16,0.18
1.966,-0.09,0.01,-0.37,0.38
1.975,-0.11,0.08,-0.58,0.59
1.986,-0.12,0.13,-0.69,0.72
1.996,-0.13,0.15,-0.72,0.75
2.006,-0.12,0.18,-0.65,0.68
2.016,-0.11,0.12,-0.48,0.51
2.026,-0.14,0.04,-0.20,0.25
2.036,-0.20,-0.06,0.12,0.24
2.046,-0.26,-0.10,0.34,0.44
2.056,-0.28,-0.17,0.36,0.48
2.066,-0.32,-0.19,0.25,0.45
2.076,-0.45,-0.14,0.05,0.47
2.087,-0.49,-0.14,-0.23,0.56
2.096,-0.47,-0.25,-0.52,0.75
2.107,-0.39,-0.09,-0.74,0.84
2.117,-0.29,0.10,-0.77,0.83
2.127,-0.17,0.06,-0.77,0.79
2.137,-0.09,-0.06,-0.77,0.78
2.147,-0.08,-0.13,-0.70,0.72
2.157,-0.11,-0.13,-0.57,0.60
2.167,-0.02,-0.16,-0.43,0.46
2.177,0.12,-0.20,-0.28,0.37
2.187,0.22,-0.23,-0.11,0.34
2.197,0.31,-0.20,-0.01,0.37
2.207,0.43,-0.10,0.02,0.45
2.217,0.52,-0.00,-0.10,0.53
2.228,0.55,-0.01,-0.19,0.58
2.238,0.57,-0.09,-0.32,0.66
2.248,0.53,-0.14,-0.44,0.71
2.258,0.39,-0.10,-0.50,0.64
2.268,0.18,-0.04,-0.48,0.51
2.278,-0.05,-0.04,-0.37,0.37
2.288,-0.15,-0.06,-0.12,0.20
2.298,-0.11,-0.08,0.13,0.18
2.308,0.01,-0.08,0.18,0.19
2.318,0.09,-0.07,0.23,0.26
2.328,0.09,-0.09,0.33,0.35
2.338,0.01,-0.19,0.35,0.40
2.349,-0.08,-0.28,0.34,0.44
2.358,-0.12,-0.23,0.28,0.38
2.369,-0.08,-0.08,0.28,0.30
2.379,0.04,0.10,0.39,0.41
2.389,0.20,0.26,0.53,0.63
2.399,0.38,0.27,0.47,0.66
2.409,0.39,0.24,0.26,0.53
2.419,0.31,0.24,0.17,0.43
2.429,0.21,0.25,0.08,0.33
2.439,0.05,0.19,0.07,0.21
2.449,-0.08,0.18,0.19,0.27
2.459,-0.11,0.19,0.23,0.32
2.469,0.01,0.17,0.13,0.21
2.479,0.03,0.20,0.04,0.21
2.490,-0.02,0.24,-0.07,0.25
2.500,-0.13,0.28,-0.27,0.41
2.510,-0.22,0.28,-0.48,0.59
2.520,-0.42,0.28,-0.56,0.75
2.530,-0.62,0.24,-0.52,0.84
2.540,-0.57,0.15,-0.32,0.67
2.550,-0.36,0.08,-0.15,0.40
2.560,-0.22,0.11,-0.08,0.26
2.570,-0.10,0.19,-0.07,0.22
2.580,-0.03,0.26,-0.11,0.29
2.590,-0.06,0.31,-0.17,0.36
2.600,-0.09,0.30,-0.24,0.40
2.610,-0.10,0.31,-0.25,0.41
2.621,-0.06,0.31,-0.23,0.39
2.631,-0.02,0.35,-0.13,0.37
2.641,-0.02,0.26,-0.10,0.28
2.651,-0.14,0.16,-0.09,0.23
2.661,-0.29,0.11,-0.04,0.31
2.671,-0.35,0.02,0.11,0.37
2.681,-0.19,-0.04,0.42,0.47
2.691,0.15,0.01,0.84,0.85
2.701,0.35,-0.01,1.04,1.10
2.711,0.42,-0.02,0.97,1.05
2.721,0.39,0.00,0.72,0.82
2.732,0.28,0.04,0.28,0.40
2.741,0.06,0.04,-0.16,0.18
2.752,-0.17,0.05,-0.41,0.45
2.762,-0.31,0.04,-0.42,0.53
2.772,-0.34,-0.04,-0.26,0.43
2.782,-0.37,-0.09,-0.06,0.38
2.792,-0.32,-0.13,0.01,0.34
2.802,-0.21,-0.09,0.13,0.27
2.812,-0.10,-0.13,0.34,0.38
2.822,-0.15,-0.27,0.46,0.56
2.832,-0.24,-0.37,0.35,0.56
2.842,-0.48,-0.41,0.06,0.63
2.852,-0.88,-0.69,-0.47,1.21
2.862,-1.76,-1.51,-0.58,2.39
2.873,-1.98,-1.25,0.07,2.34
2.883,-0.07,0.42,0.33,0.54
2.893,0.69,0.94,-0.26,1.20
2.903,0.47,0.31,-0.59,0.82
2.913,0.22,0.26,-0.48,0.58
2.923,-0.17,-0.08,-0.24,0.30
2.933,-0.48,-0.33,-0.28,0.64
2.943,-0.69,-0.28,-0.33,0.82
2.953,-0.59,-0.41,-0.25,0.76
2.963,-0.50,-0.49,-0.16,0.72
2.973,-0.45,-0.30,-0.17,0.57
2.983,-0.32,-0.07,-0.25,0.42
2.994,-0.52,-0.46,-0.49,0.86
3.004,-1.01,-1.01,-0.51,1.52
3.014,-0.99,-0.65,-0.09,1.19
3.024,-0.40,0.17,0.13,0.46
3.034,0.27,0.63,0.08,0.69
3.044,0.64,0.70,0.31,1.00
3.054,0.65,0.39,0.52,0.92
3.064,0.30,-0.09,0.53,0.62
3.074,-0.14,-0.42,0.30,0.53
3.084,-0.46,-0.51,0.07,0.70
3.094,-0.45,-0.43,-0.35,0.71
3.104,-0.39,-0.34,-0.73,0.90
3.114,-0.30,-0.09,-0.81,0.86
3.124,-0.19,0.23,-0.76,0.82
3.135,0.02,0.35,-0.59,0.68
3.145,0.22,0.33,-0.28,0.49
3.155,0.28,0.35,-0.06,0.45
3.165,0.37,0.43,0.14,0.59
3.175,0.41,0.44,0.33,0.69
3.185,0.41,0.38,0.49,0.75
3.195,0.40,0.26,0.63,0.79
3.205,0.33,0.16,0.65,0.75
3.215,0.20,0.12,0.52,0.57
3.225,0.05,0.09,0.49,0.50
3.235,-0.05,0.10,0.42,0.44
3.245,-0.03,0.18,0.28,0.33
3.256,0.11,0.30,0.11,0.33
3.266,0.26,0.37,0.06,0.46
3.276,0.33,0.36,0.11,0.50
3.286,0.42,0.40,0.01,0.58
3.296,0.44,0.45,-0.15,0.65
3.306,0.19,0.32,-0.20,0.42
3.316,-0.19,0.12,-0.25,0.34
3.326,-0.44,0.04,-0.20,0.49
3.336,-0.51,0.10,0.02,0.52
3.346,-0.35,0.15,0.47,0.61
3.356,0.01,0.06,0.85,0.85
3.366,0.31,0.05,0.89,0.94
3.377,0.41,0.18,0.62,0.77
3.386,0.40,0.20,0.20,0.49
3.397,0.34,0.11,-0.18,0.40
3.407,0.17,-0.02,-0.49,0.52
3.417,-0.01,-0.19,-0.54,0.58
3.427,-0.16,-0.37,-0.30,0.50
3.437,-0.30,-0.57,0.18,0.67
3.447,-0.33,-0.82,0.54,1.04
3.457,-0.18,-1.06,0.64,1.25
3.467,-0.06,-1.26,0.52,1.36
3.477,-0.02,-1.40,0.16,1.41
3.487,0.09,-1.62,-0.16,1.63
3.498,0.17,-1.96,-0.45,2.01
3.507,0.30,-2.49,-0.58,2.58
3.518,0.42,-3.31,-0.65,3.39
3.528,0.21,-3.80,-0.63,3.85
3.538,-0.45,-3.74,-0.67,3.82
3.548,-1.30,-2.91,-0.94,3.32
3.558,-2.22,-1.02,-1.50,2.87
3.568,-3.03,0.40,-2.32,3.84
3.578,-2.89,-0.06,-2.66,3.93
3.588,-1.95,-1.74,-2.74,3.79
3.598,-1.43,-2.53,-2.44,3.79
3.608,-1.27,-2.33,-1.66,3.13
3.618,-1.50,-1.77,-0.64,2.41
3.628,-1.83,-0.91,0.60,2.13
3.639,-1.52,-0.58,1.80,2.43
3.649,-1.64,-0.58,2.32,2.90
3.659,-1.71,-0.21,1.92,2.58
3.669,-1.01,0.11,1.16,1.54
3.679,-0.44,0.16,0.59,0.75
3.689,0.09,0.28,0.06,0.30
3.699,0.74,0.61,-0.45,1.06
3.709,1.26,1.10,-0.64,1.79
3.719,0.91,1.82,-0.39,2.08
3.729,-0.29,2.72,0.60,2.80
3.739,-1.36,3.23,1.83,3.95
3.749,-1.58,3.30,2.76,4.58
3.760,-1.37,3.44,3.55,5.13
3.770,-0.66,3.46,4.08,5.39
3.780,0.62,3.32,4.61,5.71
3.789,2.04,3.48,4.81,6.28
3.800,2.86,3.50,4.49,6.37
3.810,2.89,3.34,3.81,5.83
3.820,2.67,3.20,2.97,5.12
3.830,2.23,3.06,2.06,4.31
3.840,1.65,2.74,1.21,3.42
3.850,0.89,2.27,0.64,2.52
3.860,0.13,1.79,0.25,1.81
3.870,-0.65,1.37,0.09,1.52
3.880,-1.10,1.03,0.06,1.51
3.890,-1.19,0.73,0.03,1.40
3.901,-1.19,0.25,1.22,1.72
3.910,-0.61,0.45,1.64,1.81
3.921,-0.16,0.54,0.78,0.96
3.931,-0.15,-0.17,0.39,0.45
3.941,-0.40,-0.20,-0.01,0.45
3.951,-0.43,-0.45,-0.17,0.64
3.961,-0.53,-0.94,-0.64,1.25
3.971,-0.65,-1.42,-0.73,1.73
3.981,-0.91,-1.77,-0.54,2.06
3.991,-1.33,-2.30,-0.88,2.80
4.001,-1.71,-3.15,-1.26,3.80
4.011,-1.88,-3.44,0.04,3.92
4.021,-2.28,-2.77,-0.32,3.61
4.032,-1.57,-1.58,-0.71,2.34
4.042,-1.41,-1.08,-1.17,2.13
4.052,-1.69,-1.34,-1.79,2.80
4.062,-1.71,-1.50,-2.20,3.16
4.072,-1.50,-1.38,-2.60,3.30
4.082,-1.18,-1.02,-2.77,3.18
4.092,-0.46,-0.84,-2.31,2.50
4.102,0.72,-0.80,-1.57,1.90
4.112,1.75,-0.91,-0.96,2.19
4.122,2.25,-0.97,-0.62,2.53
4.132,2.23,-0.99,-0.61,2.51
4.143,1.71,-1.04,-0.94,2.21
4.152,1.21,-1.22,-1.45,2.24
4.163,1.25,-1.53,-2.26,3.00
4.173,1.66,-1.81,-2.73,3.68
4.183,2.00,-2.01,-2.45,3.75
4.193,2.36,-2.00,-1.62,3.49
4.203,2.74,-1.79,-0.77,3.36
4.213,3.06,-1.71,-0.19,3.51
4.223,3.55,-1.68,0.22,3.93
4.233,4.08,-1.50,0.66,4.40
4.243,4.39,-1.27,1.10,4.70
4.253,4.14,-1.00,1.39,4.48
4.263,3.43,-0.84,1.35,3.78
4.273,3.23,-0.80,0.84,3.43
4.284,3.57,-0.61,0.28,3.64
4.294,3.86,-0.07,0.06,3.86
4.304,3.89,0.51,0.26,3.93
4.314,3.63,0.87,0.70,3.80
4.324,3.51,1.05,0.81,3.75
4.334,3.21,1.21,0.72,3.50
4.344,2.74,1.35,0.39,3.08
4.354,2.55,1.27,-0.00,2.85
4.364,2.75,1.05,-0.27,2.96
4.374,3.11,1.06,-0.17,3.29
4.384,2.87,1.56,0.65,3.33
4.394,0.52,2.61,1.55,3.08
4.405,-0.69,2.72,1.57,3.21
4.414,-0.17,1.88,0.84,2.07
4.425,0.65,1.33,0.33,1.52
4.435,0.94,1.13,0.08,1.47
4.445,0.75,0.92,-0.25,1.21
4.455,0.51,0.65,-0.38,0.91
4.465,0.20,0.24,-0.29,0.43
4.475,0.09,-0.13,0.15,0.22
4.485,0.56,0.39,0.73,1.00
4.495,0.65,0.46,0.09,0.80
4.505,0.54,-0.06,-0.87,1.03
4.515,0.22,-0.43,-1.31,1.40
4.525,-0.38,-0.58,-1.36,1.52
4.535,-0.68,-0.72,-1.39,1.71
4.546,-0.62,-0.94,-1.32,1.74
4.556,-0.73,-1.17,-1.29,1.89
4.566,-1.10,-1.38,-1.35,2.23
4.576,-1.35,-1.55,-1.36,2.47
4.586,-1.51,-1.50,-1.26,2.48
4.596,-1.67,-1.16,-1.21,2.37
4.606,-1.88,-0.72,-1.16,2.33
4.616,-2.07,-0.32,-1.08,2.35
4.626,-2.22,0.01,-0.98,2.43
4.636,-2.40,0.17,-0.64,2.49
4.646,-2.78,0.33,-0.38,2.82
4.656,-3.22,0.46,-0.28,3.26
4.667,-3.73,0.53,0.00,3.77
4.676,-4.21,0.60,0.67,4.30
4.687,-4.27,0.80,0.43,4.37
4.697,-4.21,1.01,0.58,4.37
4.707,-4.16,1.32,0.84,4.44
4.717,-3.98,1.76,0.87,4.44
4.727,-3.71,2.26,0.99,4.46
4.737,-3.40,2.80,0.97,4.50
4.747,-3.18,3.19,1.18,4.66
4.757,-2.95,3.43,1.67,4.82
4.767,-2.54,3.43,2.31,4.86
4.777,-2.14,3.21,2.96,4.87
4.787,-1.80,2.84,3.53,4.88
4.797,-1.61,2.43,3.71,4.72
4.808,-1.57,2.07,3.64,4.48
4.818,-1.50,1.90,3.46,4.23
4.828,-1.14,1.88,3.15,3.84
4.838,-0.67,1.86,2.56,3.23
4.848,-0.45,1.70,1.74,2.48
4.858,-0.42,1.52,1.02,1.87
4.868,-0.56,1.31,0.42,1.49
4.878,-0.78,0.97,-0.02,1.25
4.888,-1.10,0.49,-0.17,1.22
4.898,-1.48,0.02,-0.22,1.50
4.908,-1.81,-0.39,-0.12,1.86
4.918,-2.05,-0.71,-0.13,2.17
4.929,-2.29,-0.89,-0.29,2.47
4.939,-2.42,-0.95,-0.54,2.66
4.949,-2.39,-0.98,-0.78,2.70
4.959,-2.40,-0.99,-0.91,2.75
4.969,-2.30,-0.93,-0.98,2.67
4.979,-2.13,-0.81,-0.95,2.47
4.989,-1.86,-0.76,-0.89,2.19
4.999,-1.62,-0.86,-0.77,1.99
5.009,-1.41,-1.08,-0.59,1.87
5.019,-1.22,-1.27,-0.46,1.82
5.029,-0.95,-1.39,-0.46,1.74
5.039,-0.61,-1.45,-0.58,1.68
5.050,-0.29,-1.44,-0.80,1.67
5.059,-0.00,-1.36,-1.07,1.73
5.070,0.34,-1.29,-1.16,1.77
5.080,0.75,-1.22,-1.05,1.77
5.090,1.22,-1.14,-0.84,1.87
5.100,1.64,-1.09,-0.62,2.07
5.110,2.11,-1.11,-0.31,2.41
5.120,2.53,-1.18,0.05,2.80
5.130,2.89,-1.37,0.26,3.21
5.140,3.19,-1.60,0.22,3.58
5.150,3.33,-1.82,-0.03,3.80
5.160,3.37,-1.95,-0.46,3.91
5.170,3.44,-1.89,-1.00,4.05
5.180,3.49,-1.77,-1.50,4.19
5.191,3.56,-1.68,-1.91,4.38
5.201,3.82,-1.56,-2.12,4.64
5.211,4.29,-1.39,-2.13,4.98
5.221,4.78,-1.24,-1.88,5.28
5.231,5.22,-1.13,-1.53,5.56
5.241,5.47,-1.00,-1.15,5.68
5.251,5.59,-0.83,-0.79,5.71
5.261,5.65,-0.71,-0.38,5.70
5.271,5.59,-0.64,-0.09,5.63
5.281,5.33,-0.54,0.07,5.36
5.292,4.83,-0.36,-0.03,4.85
5.301,4.54,-0.08,-0.21,4.55
5.312,4.42,0.28,-0.30,4.44
5.321,4.22,0.74,-0.38,4.30
5.332,4.09,1.11,-0.52,4.26
5.342,4.10,1.38,-0.69,4.38
5.352,4.11,1.63,-0.86,4.50
5.362,3.84,1.72,-0.96,4.31
5.372,3.40,1.67,-1.00,3.92
5.382,3.05,1.55,-0.97,3.56
5.392,2.76,1.39,-0.82,3.19
5.402,2.36,1.22,-0.51,2.71
5.412,1.93,1.19,-0.26,2.28
5.422,1.57,1.18,-0.03,1.97
5.433,1.25,1.11,0.14,1.67
5.443,0.87,0.95,0.29,1.33
5.453,0.47,0.82,0.32,1.00
5.463,0.09,0.74,0.27,0.79
5.473,-0.21,0.67,0.15,0.72
5.483,-0.49,0.63,0.00,0.80
5.493,-0.75,0.64,-0.18,1.00
5.503,-0.98,0.63,-0.38,1.23
5.513,-1.20,0.63,-0.56,1.47
5.523,-1.34,0.62,-0.65,1.62
5.533,-1.41,0.61,-0.70,1.69
5.543,-1.46,0.66,-0.70,1.75
5.554,-1.48,0.72,-0.67,1.77
5.563,-1.52,0.75,-0.63,1.81
5.574,-1.67,0.68,-0.58,1.90
5.584,-1.90,0.55,-0.59,2.07
5.594,-2.16,0.41,-0.60,2.28
5.604,-2.50,0.27,-0.65,2.59
5.614,-2.98,0.15,-0.79,3.09
5.624,-3.52,0.01,-0.92,3.64
5.634,-3.96,-0.14,-0.92,4.07
5.644,-4.14,-0.17,-0.65,4.20
5.654,-4.15,-0.13,-0.14,4.15
5.664,-3.86,-0.13,0.47,3.89
5.674,-3.49,-0.05,1.18,3.69
5.684,-3.07,0.04,1.81,3.56
5.695,-2.52,0.14,2.37,3.46
5.705,-2.08,0.20,2.84,3.53
5.715,-1.78,0.16,3.09,3.57
5.725,-1.70,0.12,3.12,3.55
5.735,-1.94,0.19,2.91,3.50
5.745,-2.34,0.41,2.60,3.52
5.755,-2.64,0.75,2.37,3.62
5.765,-2.60,1.12,2.39,3.70
5.775,-2.15,1.44,2.73,3.77
5.785,-1.56,1.69,3.24,3.97
5.795,-0.91,1.74,3.72,4.21
5.805,-0.22,1.65,4.09,4.42
5.816,0.31,1.39,4.13,4.37
5.826,0.48,1.08,3.79,3.97
5.836,0.35,0.91,3.15,3.29
5.846,0.11,0.93,2.41,2.59
5.856,-0.22,1.08,1.91,2.20
5.866,-0.41,1.07,1.67,2.03
5.876,-0.51,0.94,1.46,1.81
5.886,-0.67,0.66,1.28,1.59
5.896,-1.02,0.30,1.10,1.53
5.906,-1.52,-0.09,0.84,1.73
5.916,-2.00,-0.41,0.57,2.12
5.926,-2.32,-0.55,0.29,2.40
5.937,-2.47,-0.57,0.01,2.53
5.946,-2.51,-0.48,-0.25,2.57
5.957,-2.45,-0.24,-0.42,2.49
5.967,-2.29,-0.00,-0.54,2.36
5.977,-2.10,0.22,-0.64,2.20
5.987,-1.84,0.33,-0.63,1.97
5.997,-1.54,0.33,-0.35,1.62
6.007,-1.28,0.26,0.09,1.30
6.017,-1.07,0.11,0.47,1.17
6.027,-0.85,-0.11,0.89,1.23
6.037,-0.47,-0.27,1.28,1.39
6.047,-0.13,-0.38,1.54,1.59
6.057,0.05,-0.47,1.62,1.69
6.067,0.26,-0.51,1.50,1.60
6.078,0.42,-0.53,1.19,1.37
6.088,0.52,-0.57,0.85,1.15
6.098,0.64,-0.63,0.52,1.03
6.108,0.81,-0.71,0.18,1.09
6.118,1.03,-0.86,-0.12,1.34
6.128,1.21,-1.07,-0.38,1.67
6.138,1.29,-1.25,-0.62,1.90
6.148,1.24,-1.42,-0.89,2.09
6.158,1.18,-1.58,-1.13,2.27
6.168,1.04,-1.72,-1.27,2.38
6.178,0.88,-1.85,-1.32,2.44
6.188,0.71,-1.89,-1.32,2.41
6.199,0.63,-1.78,-1.35,2.32
6.208,0.73,-1.60,-1.31,2.20
6.219,0.87,-1.44,-1.26,2.10
6.229,0.96,-1.26,-1.20,1.99
6.239,1.06,-1.01,-1.10,1.83
6.249,1.21,-0.79,-1.01,1.76
6.259,1.28,-0.55,-1.02,1.73
6.269,1.20,-0.30,-1.05,1.63
6.279,0.97,-0.12,-1.07,1.45
6.289,0.84,0.05,-1.08,1.36
6.299,1.02,0.29,-0.92,1.41
6.309,1.16,0.54,-0.69,1.45
6.319,1.08,0.74,-0.40,1.37
6.329,0.89,0.90,-0.23,1.29
6.340,0.67,1.08,-0.23,1.29
6.350,0.41,1.31,-0.39,1.43
6.360,0.08,1.55,-0.55,1.65
6.370,-0.22,1.80,-0.67,1.93
6.380,-0.33,2.03,-0.76,2.19
6.390,-0.32,2.18,-0.67,2.31
6.400,-0.26,2.33,-0.49,2.40
6.410,-0.22,2.37,-0.25,2.39
6.420,-0.15,2.27,-0.05,2.28
6.430,-0.05,2.20,0.10,2.21
6.440,-0.04,2.15,0.15,2.15
6.450,-0.04,2.07,0.15,2.08
6.461,-0.02,1.99,0.05,1.99
6.471,-0.03,1.93,-0.09,1.93
6.481,-0.10,1.90,-0.25,1.92
6.491,-0.15,1.79,-0.44,1.85
6.501,-0.17,1.58,-0.60,1.70
6.511,-0.18,1.33,-0.68,1.51
6.521,-0.16,1.06,-0.68,1.27
6.531,-0.19,0.74,-0.69,1.03
6.541,-0.22,0.42,-0.70,0.85
6.551,-0.36,0.10,-0.76,0.85
6.561,-0.61,-0.10,-0.83,1.03
6.571,-0.75,-0.20,-0.86,1.16
6.582,-0.86,-0.28,-0.93,1.30
6.592,-0.93,-0.27,-0.94,1.35
6.602,-0.89,-0.09,-0.86,1.24
6.612,-0.79,0.18,-0.78,1.12
6.622,-0.60,0.38,-0.70,1.00
6.632,-0.31,0.51,-0.56,0.82
6.642,0.07,0.55,-0.42,0.69
6.652,0.47,0.45,-0.44,0.78
6.662,0.59,0.20,-0.68,0.92
6.672,0.53,-0.06,-1.01,1.15
6.682,0.42,-0.41,-1.43,1.55
6.692,0.29,-0.79,-1.75,1.94
6.702,0.24,-0.97,-1.80,2.05
6.712,0.31,-1.10,-1.53,1.91
6.723,0.53,-1.22,-1.17,1.77
6.733,0.70,-1.38,-0.73,1.71
6.743,1.06,-1.52,-0.20,1.87
6.753,1.60,-1.42,0.24,2.15
6.763,2.05,-1.36,0.44,2.50
6.773,2.35,-1.36,0.54,2.76
6.783,2.52,-1.27,0.43,2.86
6.793,2.59,-1.12,0.29,2.84
6.803,2.60,-0.82,0.15,2.73
6.813,2.63,-0.48,-0.03,2.67
6.823,2.53,-0.13,-0.01,2.53
6.833,2.59,0.24,0.23,2.61
6.844,2.77,0.48,0.60,2.87
6.854,2.97,0.62,0.97,3.18
6.864,2.89,0.73,1.17,3.20
6.874,2.56,0.79,1.06,2.88
6.884,2.24,0.74,0.56,2.43
6.894,1.95,0.83,-0.09,2.13
6.904,1.56,0.94,-0.71,1.96
6.914,1.12,0.89,-1.27,1.91
6.924,0.69,0.72,-1.64,1.92
6.934,0.30,0.51,-1.80,1.89
6.944,-0.06,0.22,-1.80,1.82
6.954,-0.28,-0.09,-1.75,1.78
6.964,-0.44,-0.37,-1.60,1.70
6.974,-0.66,-0.63,-1.46,1.72
6.985,-0.93,-0.94,-1.41,1.94
6.995,-1.20,-1.30,-1.44,2.28
7.005,-1.39,-1.60,-1.39,2.53
7.015,-1.44,-1.76,-1.23,2.59
7.025,-1.34,-1.84,-1.11,2.53
7.035,-1.27,-1.84,-0.93,2.42
7.045,-1.17,-1.66,-0.56,2.10
7.055,-0.82,-1.24,-0.20,1.50
7.065,-0.38,-0.70,0.04,0.80
7.075,0.04,-0.14,0.07,0.16
7.085,0.36,0.33,-0.06,0.49
7.095,0.70,0.76,-0.29,1.07
7.106,0.83,0.97,-0.75,1.48
7.116,0.89,0.85,-1.28,1.77
7.126,1.23,0.46,-1.59,2.06
7.136,1.43,-0.06,-1.85,2.34
7.146,1.25,-0.52,-2.34,2.70
7.156,0.78,-0.83,-3.01,3.22
7.166,0.18,-1.15,-3.70,3.88
7.176,-0.28,-1.37,-4.02,4.25
7.186,-0.62,-1.43,-3.84,4.14
7.196,-0.97,-1.54,-3.27,3.75
7.206,-0.96,-1.78,-2.30,3.06
7.216,-0.73,-2.20,-1.14,2.58
7.227,-0.54,-2.55,0.26,2.62
7.237,-0.29,-2.90,1.38,3.23
7.247,-0.27,-3.26,2.35,4.02
7.257,-0.31,-3.55,3.05,4.69
7.267,-0.49,-3.76,3.24,4.99
7.277,-0.87,-3.82,2.89,4.87
7.287,-1.21,-3.38,2.05,4.14
7.297,-1.35,-2.43,1.37,3.09
7.307,-0.83,-1.29,1.30,2.01
7.317,-0.01,-0.30,1.88,1.90
7.327,0.95,0.35,2.89,3.07
7.337,1.69,0.67,3.78,4.19
7.347,2.26,0.92,4.09,4.76
7.358,2.48,1.16,3.92,4.78
7.368,2.30,1.38,3.40,4.34
7.378,1.94,1.53,2.91,3.82
7.388,1.72,1.74,2.39,3.42
7.398,1.63,1.88,1.83,3.09
7.408,1.34,1.84,1.44,2.69
7.418,0.88,1.67,1.16,2.21
7.428,0.44,1.35,1.02,1.75
7.438,-0.16,0.98,1.17,1.54
7.448,-0.71,0.61,1.29,1.59
7.458,-1.16,0.33,1.58,1.99
7.468,-1.48,0.23,2.04,2.53
7.478,-1.67,0.19,2.29,2.84
7.489,-1.85,0.28,2.38,3.02
7.499,-1.94,0.52,2.37,3.11
7.509,-2.02,0.77,2.37,3.21
7.519,-2.04,0.80,2.36,3.22
7.529,-2.07,0.79,2.31,3.20
7.539,-2.03,0.82,2.37,3.23
7.549,-2.05,0.82,2.23,3.14
7.559,-2.20,0.87,1.92,3.05
7.569,-2.37,0.85,1.58,2.98
7.579,-2.55,0.72,1.22,2.92
7.590,-2.65,0.62,1.09,2.93
7.599,-2.64,0.61,1.11,2.93
7.610,-2.47,0.60,1.07,2.76
7.620,-2.39,0.55,0.97,2.64
7.630,-2.44,0.46,0.87,2.63
7.640,-2.28,0.60,1.01,2.56
7.650,-1.92,0.51,0.66,2.10
7.660,-1.99,0.45,-0.06,2.04
7.670,-1.91,1.38,-0.07,2.36
7.680,-2.49,1.44,-0.77,2.98
7.690,-2.67,1.35,-1.90,3.54
7.700,-2.61,1.81,-2.83,4.25
7.711,-2.63,2.49,-3.34,4.93
7.721,-2.52,3.00,-3.45,5.22
7.731,-2.31,3.25,-3.06,5.03
7.741,-2.17,3.36,-2.25,4.59
7.751,-2.07,3.36,-1.56,4.24
7.761,-1.85,3.39,-1.10,4.02
7.771,-1.62,3.47,-0.89,3.93
7.781,-1.53,3.42,-0.86,3.84
7.791,-1.58,3.19,-0.81,3.65
7.801,-1.68,2.85,-0.37,3.32
7.811,-1.54,2.41,0.46,2.90
7.821,-1.20,1.90,1.37,2.63
7.831,-0.87,1.20,3.21,3.54
7.841,-0.56,0.64,5.35,5.42
7.852,-0.45,0.33,3.35,3.40
7.861,-0.53,-0.20,2.65,2.71
7.872,-0.81,-0.29,1.35,1.60
7.882,-1.10,-0.36,0.31,1.20
7.892,-1.31,-0.55,-0.44,1.48
7.902,-1.16,-0.80,-0.89,1.67
7.912,-1.11,-0.98,-1.00,1.79
7.922,-1.03,-1.27,-1.03,1.94
7.932,-0.90,-1.72,-1.01,2.19
7.942,-0.73,-2.02,-0.98,2.36
7.952,-0.59,-2.06,-0.86,2.31
7.962,-0.50,-2.01,-0.55,2.15
7.973,-0.23,-1.89,-0.13,1.90
7.982,0.08,-1.66,0.34,1.70
7.993,0.48,-1.47,0.85,1.77
8.003,0.98,-1.27,1.38,2.11
8.013,1.46,-1.17,1.65,2.49
8.023,1.76,-1.07,1.80,2.74
8.033,1.84,-1.11,1.86,2.85
8.043,1.89,-1.30,1.79,2.91
8.053,2.10,-1.53,1.66,3.08
8.063,2.33,-1.67,1.56,3.26
8.073,2.48,-1.76,1.55,3.41
8.083,2.59,-2.01,1.61,3.65
8.093,2.68,-2.26,1.89,3.98
8.103,2.56,-2.40,2.09,4.09
8.114,2.49,-2.56,2.18,4.18
8.124,2.54,-2.72,2.16,4.31
8.134,2.45,-2.70,1.82,4.07
8.144,2.64,-2.50,1.36,3.88
8.154,2.79,-2.24,0.98,3.71
8.164,2.91,-2.06,0.83,3.66
8.174,3.13,-2.07,0.58,3.80
8.184,2.96,-2.15,0.27,3.67
8.194,2.87,-2.20,-0.07,3.62
8.204,2.86,-2.24,-0.46,3.66
8.214,2.74,-2.17,-0.86,3.60
8.224,2.56,-2.01,-1.15,3.45
8.235,2.36,-1.77,-1.19,3.18
8.244,2.20,-1.35,-0.96,2.76
8.255,2.07,-0.80,-0.73,2.33
8.265,2.02,-0.42,-0.53,2.13
8.275,2.11,-0.19,-0.23,2.13
8.285,2.03,-0.06,0.19,2.04
8.295,1.91,-0.00,0.51,1.98
8.305,1.60,-0.02,0.60,1.71
8.315,1.16,-0.00,0.57,1.29
8.325,0.94,0.10,0.45,1.05
8.335,0.94,0.25,0.35,1.03
8.345,0.97,0.42,0.25,1.08
8.355,0.96,0.50,-0.04,1.08
8.365,0.75,0.57,-0.43,1.03
8.376,0.36,0.62,-0.81,1.08
8.386,-0.00,0.61,-1.18,1.33
8.396,-0.44,0.64,-1.60,1.78
8.406,-0.88,0.77,-2.04,2.35
8.416,-1.31,1.04,-2.43,2.95
8.426,-1.73,1.47,-2.67,3.51
8.436,-2.16,1.93,-2.82,4.04
8.446,-2.43,2.28,-2.96,4.45
8.456,-2.52,2.65,-2.93,4.68
8.466,-2.49,3.03,-2.71,4.77
8.476,-2.35,3.26,-2.45,4.70
8.486,-2.15,3.41,-2.12,4.56
8.497,-1.98,3.49,-1.78,4.39
8.506,-1.79,3.40,-1.50,4.13
8.517,-1.52,3.23,-1.28,3.79
8.527,-1.33,3.03,-0.99,3.45
8.537,-1.22,2.77,-0.72,3.11
8.547,-1.12,2.43,-0.49,2.72
8.557,-0.95,2.12,-0.33,2.35
8.567,-0.80,1.81,-0.23,1.99
8.577,-0.72,1.38,-0.21,1.57
8.587,-0.62,0.84,-0.17,1.06
8.597,-0.46,0.34,-0.09,0.58
8.607,-0.31,-0.16,0.13,0.37
8.617,-0.15,-0.60,0.45,0.76
8.627,-0.05,-1.00,0.72,1.23
8.638,0.08,-1.30,0.86,1.56
8.647,0.28,-1.43,0.98,1.76
8.658,0.58,-1.42,1.02,1.84
8.668,0.86,-1.30,0.94,1.82
8.678,1.19,-1.12,0.84,1.84
8.688,1.61,-1.01,0.82,2.07
8.698,2.04,-0.86,0.80,2.36
8.708,2.34,-0.76,0.72,2.56
8.718,2.48,-0.83,0.65,2.70
8.728,2.50,-1.01,0.54,2.75
8.738,2.40,-1.08,0.22,2.65
8.748,2.23,-1.05,-0.41,2.50
8.759,1.93,-0.88,-1.19,2.43
8.768,1.57,-0.64,-1.80,2.47
8.779,1.34,-0.50,-2.02,2.48
8.789,1.09,-0.50,-1.90,2.25
8.799,0.82,-0.66,-1.60,1.91
8.809,0.59,-0.87,-1.39,1.74
8.819,0.23,-1.04,-1.40,1.76
8.829,-0.36,-1.09,-1.52,1.90
8.839,-0.86,-0.99,-1.50,1.99
8.849,-1.25,-0.83,-1.38,2.04
8.859,-1.48,-0.80,-1.11,2.01
8.869,-1.55,-0.74,-0.62,1.83
8.879,-1.43,-0.60,-0.09,1.56
8.889,-1.14,-0.43,0.41,1.29
8.900,-0.81,-0.17,0.74,1.11
8.910,-0.42,0.03,0.84,0.94
8.920,-0.07,0.20,0.81,0.84
8.930,0.27,0.33,0.74,0.85
8.940,0.58,0.38,0.62,0.93
8.950,0.79,0.48,0.44,1.02
8.960,0.90,0.66,0.22,1.14
8.970,0.93,0.70,0.01,1.16
8.980,0.93,0.62,-0.08,1.12
8.990,0.94,0.50,-0.04,1.07
9.000,0.94,0.37,-0.04,1.01
9.010,0.77,0.19,-0.18,0.81
9.021,0.47,-0.02,-0.43,0.64
9.031,0.13,-0.24,-0.74,0.79
9.041,-0.18,-0.36,-0.91,1.00
9.051,-0.48,-0.45,-1.10,1.28
9.061,-0.81,-0.44,-1.24,1.54
9.071,-1.13,-0.32,-1.30,1.75
9.081,-1.48,-0.25,-1.38,2.03
9.091,-1.81,-0.15,-1.52,2.37
9.101,-2.12,-0.00,-1.67,2.70
9.111,-2.29,0.30,-1.77,2.91
9.121,-2.16,0.69,-1.91,2.96
9.131,-2.11,0.88,-2.10,3.11
9.142,-2.05,1.02,-2.05,3.07
9.151,-1.52,1.80,-2.07,3.14
9.162,-1.43,1.71,-2.26,3.17
9.172,-1.46,1.39,-2.20,2.99
9.182,-1.31,1.32,-1.89,2.65
9.192,-1.08,1.15,-1.34,2.07
9.202,-0.71,0.81,-0.60,1.23
9.212,-0.25,0.55,0.31,0.67
9.222,0.18,0.36,1.27,1.34
9.232,0.60,0.09,2.09,2.18
9.242,0.99,-0.21,2.60,2.79
9.252,1.22,-0.55,2.61,2.93
9.262,1.13,-0.77,2.13,2.53
9.272,0.83,-0.85,1.27,1.74
9.283,0.39,-0.77,0.46,0.98
9.293,-0.01,-0.65,0.05,0.65
9.303,-0.16,-0.62,0.24,0.68
9.313,-0.02,-0.65,0.85,1.06
9.323,0.38,-0.71,1.54,1.74
9.333,0.63,-0.76,2.11,2.33
9.343,0.71,-0.88,2.32,2.58
9.353,0.66,-1.09,2.16,2.51
9.363,0.36,-1.20,1.85,2.23
9.373,0.05,-1.19,1.56,1.96
9.383,-0.08,-1.12,1.29,1.71
9.393,-0.06,-0.91,1.10,1.43
9.404,-0.10,-0.56,0.99,1.14
9.413,0.05,-0.36,1.14,1.19
9.424,0.38,-0.23,1.57,1.63
9.434,0.53,-0.18,1.98,2.06
9.444,0.62,-0.18,2.34,2.42
9.454,0.71,-0.17,2.55,2.65
9.464,0.77,-0.10,2.63,2.74
9.474,0.71,0.15,2.50,2.60
9.484,0.68,0.33,2.11,2.24
9.494,0.59,0.44,1.56,1.72
9.504,0.39,0.53,0.76,1.00
9.514,0.11,0.69,0.11,0.71
9.525,-0.20,0.75,-0.27,0.82
9.534,-0.57,0.61,-0.29,0.88
9.545,-0.99,0.37,-0.11,1.06
9.555,-1.39,0.14,-0.06,1.40
9.565,-1.85,0.04,0.07,1.85
9.575,-2.36,0.16,0.16,2.37
9.585,-2.77,0.47,0.15,2.81
9.595,-2.99,0.83,0.06,3.10
9.605,-2.87,1.15,-0.06,3.09
9.615,-2.76,1.61,-0.31,3.21
9.625,-2.68,2.04,-0.83,3.47
9.635,-2.58,2.12,-1.52,3.66
9.645,-2.69,1.88,-2.15,3.93
9.655,-2.67,1.57,-2.61,4.06
9.666,-2.70,1.20,-2.68,3.99
9.676,-2.61,0.65,-2.52,3.69
9.686,-2.80,-0.18,-2.31,3.64
9.696,-2.31,-0.09,-1.78,2.92
9.706,-1.62,0.21,-1.08,1.96
9.716,-1.77,-0.14,-0.24,1.80
9.726,-1.81,-0.36,0.59,1.93
9.736,-1.60,-0.45,1.22,2.06
9.746,-1.76,-0.63,1.11,2.17
9.756,-1.62,-0.37,1.16,2.02
9.766,-1.32,-0.04,0.88,1.59
9.776,-1.46,0.16,0.65,1.60
9.787,-1.44,0.17,0.64,1.58
9.796,-1.26,0.13,0.98,1.60
9.807,-0.77,0.07,1.65,1.82
9.817,-0.23,0.07,2.34,2.35
9.827,0.06,0.08,2.72,2.72
9.837,0.18,0.03,2.83,2.84
9.847,0.15,-0.03,2.68,2.68
9.857,0.30,-0.16,2.61,2.63
9.867,0.24,-0.26,2.50,2.52
9.877,-0.06,-0.37,2.30,2.33
9.887,-0.17,-0.58,2.23,2.31
9.897,0.06,-0.82,2.33,2.47
9.908,0.41,-1.02,2.53,2.76
9.917,0.36,-1.19,2.29,2.61
9.928,0.21,-1.44,1.56,2.14
9.938,-0.02,-1.64,0.68,1.78
9.948,-0.06,-1.78,0.40,1.82
9.958,0.30,-1.73,0.92,1.99
9.968,0.90,-1.67,1.58,2.46
9.978,1.30,-1.78,2.15,3.08
9.988,1.50,-1.94,2.53,3.53
9.998,1.67,-2.05,2.91,3.93
10.008,1.74,-1.67,2.87,3.75
10.018,1.82,-1.51,2.55,3.47
10.028,2.36,-1.48,2.43,3.70
10.038,2.66,-1.18,1.87,3.45
10.049,2.97,-0.80,1.01,3.24
10.059,3.16,-0.52,0.14,3.21
10.069,3.30,-0.29,-0.57,3.37
10.079,3.41,-0.22,-0.68,3.48
10.089,3.50,-0.31,-0.16,3.52
10.099,3.33,-0.68,0.36,3.41
10.109,2.79,-1.00,0.54,3.01
10.119,2.36,-1.19,0.49,2.69
10.129,1.98,-1.18,0.25,2.32
10.139,1.63,-0.98,-0.17,1.91
10.150,1.33,-0.80,-0.50,1.63
10.159,1.18,-0.62,-0.75,1.53
10.170,1.04,-0.37,-1.19,1.62
10.180,0.90,0.00,-1.65,1.88
10.190,0.88,0.38,-1.81,2.05
10.200,1.08,0.75,-1.44,1.95
10.210,1.20,1.21,-0.78,1.87
10.220,1.16,1.57,-0.04,1.95
10.230,1.07,1.60,0.50,1.99
10.240,0.85,1.56,0.62,1.88
10.250,0.46,1.55,0.29,1.64
10.260,0.06,1.45,-0.12,1.46
10.270,-0.36,1.40,-0.48,1.52
10.280,-0.72,1.35,-0.91,1.78
10.291,-1.06,1.29,-1.34,2.14
10.300,-1.25,1.34,-1.63,2.46
10.311,-1.34,1.39,-1.84,2.67
10.321,-1.38,1.38,-2.00,2.79
10.331,-1.36,1.37,-2.05,2.82
10.341,-1.33,1.34,-2.08,2.80
10.351,-1.29,1.16,-2.14,2.75
10.361,-1.19,0.94,-2.20,2.67
10.371,-1.20,0.75,-2.29,2.70
10.381,-1.30,0.58,-2.44,2.82
10.391,-1.26,0.47,-2.44,2.78
10.402,-1.13,0.49,-2.23,2.55
10.411,-0.97,0.55,-1.88,2.18
10.421,-0.79,0.65,-1.54,1.85
10.432,-0.62,0.71,-1.27,1.58
10.442,-0.40,0.64,-0.95,1.21
10.452,-0.14,0.48,-0.47,0.68
10.462,0.10,0.37,0.11,0.40
10.472,0.32,0.22,0.61,0.72
10.482,0.45,0.12,0.95,1.06
10.492,0.50,0.07,1.14,1.25
10.502,0.55,-0.07,1.32,1.43
10.512,0.59,-0.30,1.59,1.73
10.522,0.66,-0.46,1.84,2.01
10.532,0.93,-0.59,2.07,2.34
10.542,1.20,-0.80,2.08,2.53
10.553,1.42,-0.95,1.93,2.58
10.562,1.47,-1.06,1.47,2.34
10.573,1.31,-1.31,0.93,2.08
10.583,1.01,-1.54,0.50,1.91
10.593,1.20,-1.00,-0.01,1.56
10.603,1.19,-1.18,-0.56,1.77
10.613,1.24,-1.51,-0.87,2.14
10.623,1.34,-1.59,-1.28,2.44
10.633,1.39,-1.56,-1.75,2.72
10.643,1.40,-1.63,-1.99,2.93
10.653,1.28,-1.61,-2.03,2.89
10.663,1.02,-1.52,-2.01,2.72
10.674,0.68,-1.47,-1.81,2.43
10.683,0.39,-1.53,-1.37,2.09
10.694,0.18,-1.60,-0.96,1.87
10.704,0.04,-1.47,-0.81,1.68
10.714,-0.09,-1.18,-0.83,1.45
10.724,-0.14,-0.95,-0.73,1.20
10.734,-0.11,-0.79,-0.57,0.98
10.744,-0.10,-0.57,-0.63,0.86
10.754,-0.02,-0.27,-0.88,0.92
10.764,-0.04,0.09,-1.03,1.04
10.774,-0.01,0.33,-1.17,1.21
10.784,0.02,0.44,-1.30,1.37
10.794,-0.06,0.55,-1.18,1.30
10.804,-0.06,0.71,-0.98,1.21
10.815,0.16,0.79,-0.76,1.11
10.825,0.38,0.80,-0.70,1.13
10.835,0.27,0.74,-0.91,1.20
10.845,0.13,0.66,-0.96,1.18
10.855,0.12,0.64,-0.85,1.07
10.865,0.24,0.65,-0.69,0.98
10.875,0.33,0.61,-0.48,0.84
10.885,0.42,0.50,-0.31,0.72
10.895,0.41,0.36,-0.17,0.57
10.905,0.37,0.30,-0.01,0.48
10.916,0.38,0.40,0.14,0.56
10.925,0.39,0.51,0.29,0.71
10.936,0.31,0.51,0.42,0.73
10.945,0.13,0.52,0.62,0.82
10.956,0.09,0.64,0.91,1.11
10.966,0.14,0.74,1.15,1.37
10.976,0.10,0.77,1.22,1.44
10.986,-0.03,0.76,1.19,1.41
10.996,-0.18,0.72,1.06,1.29
11.006,-0.25,0.69,0.86,1.13
11.016,-0.25,0.71,0.92,1.19
11.026,-0.12,0.73,1.24,1.45
11.036,0.32,1.00,1.01,1.46
11.046,0.52,1.09,0.81,1.45
11.056,0.67,1.03,0.95,1.56
11.066,0.83,1.03,1.14,1.75
11.077,0.77,1.05,0.99,1.64
11.087,0.39,0.98,0.48,1.16
11.097,-0.16,0.74,-0.09,0.76
11.107,-0.60,0.55,-0.48,0.94
11.117,-0.80,0.59,-0.64,1.18
11.127,-0.85,0.69,-0.63,1.26
11.137,-1.03,0.74,-0.54,1.38
11.147,-1.29,0.75,-0.44,1.55
11.157,-1.42,0.86,-0.21,1.67
11.167,-1.52,0.94,0.09,1.79
11.178,-1.42,1.08,0.69,1.92
11.187,-1.14,1.19,1.64,2.33
11.198,-1.18,0.94,1.24,1.95
11.207,-1.24,0.54,1.44,1.98
11.218,-1.72,0.13,1.54,2.31
11.228,-2.04,-0.35,1.36,2.48
11.238,-2.20,-0.75,1.24,2.64
11.248,-2.32,-1.07,1.13,2.79
11.258,-2.39,-1.27,1.24,2.98
11.268,-2.31,-1.33,1.50,3.06
11.278,-2.17,-1.36,1.80,3.13
11.288,-1.99,-1.40,1.96,3.12
11.298,-1.83,-1.52,1.99,3.10
11.308,-1.67,-1.59,2.03,3.07
11.319,-1.48,-1.64,2.02,2.99
11.328,-1.31,-1.66,1.96,2.88
11.339,-1.19,-1.71,1.81,2.76
11.349,-1.20,-1.80,1.65,2.72
11.359,-1.14,-1.66,1.39,2.44
11.369,-1.00,-1.32,1.09,1.98
11.379,-0.84,-1.01,0.85,1.57
11.389,-0.49,-0.66,0.69,1.07
11.399,-0.13,-0.28,0.62,0.69
11.409,0.03,-0.11,0.55,0.56
11.419,0.25,-0.07,0.45,0.52
11.429,0.44,-0.07,0.42,0.61
11.440,0.53,-0.12,0.46,0.71
11.449,0.60,-0.10,0.64,0.89
11.460,0.71,-0.06,0.89,1.14
11.470,0.74,-0.07,1.14,1.37
11.480,0.75,-0.05,1.36,1.55
11.490,0.72,-0.08,1.54,1.70
11.500,0.77,-0.17,1.50,1.70
11.510,0.82,-0.18,1.08,1.37
11.520,0.69,-0.12,0.27,0.75
11.530,0.45,-0.06,-0.63,0.77
11.540,0.24,-0.01,-1.33,1.35
11.550,-0.11,0.11,-1.82,1.83
11.560,-0.37,0.41,-2.11,2.18
11.570,-0.54,0.66,-2.10,2.27
11.581,-0.61,0.87,-1.75,2.05
11.591,-0.66,1.02,-1.11,1.65
11.601,-0.68,1.19,-0.56,1.48
11.611,-0.81,1.36,-0.34,1.62
11.621,-1.11,1.50,-0.23,1.88
11.631,-1.55,1.55,-0.24,2.20
11.641,-2.01,1.61,-0.27,2.59
11.651,-2.22,1.66,-0.18,2.78
11.661,-2.11,1.71,0.07,2.72
11.673,-1.89,1.64,0.41,2.54
11.681,-1.65,1.64,0.57,2.39
11.691,-1.48,1.49,0.45,2.14
11.701,-1.38,1.16,0.16,1.81
11.711,-1.35,0.80,0.00,1.57
11.722,-1.31,0.49,0.11,1.40
11.732,-1.27,0.20,0.39,1.34
11.742,-1.19,-0.05,0.63,1.35
11.752,-1.04,-0.27,0.83,1.36
11.762,-0.91,-0.51,0.83,1.33
11.772,-0.86,-0.63,0.70,1.28
11.782,-0.95,-0.64,0.63,1.31
11.792,-0.87,-0.69,0.81,1.37
11.802,-0.69,-0.77,1.09,1.50
11.812,-0.52,-1.02,1.40,1.81
11.823,-0.36,-1.16,1.56,1.98
11.832,-0.17,-1.22,1.51,1.95
11.843,0.00,-1.28,1.38,1.89
11.853,0.09,-1.34,1.19,1.79
11.863,0.15,-1.21,1.07,1.62
11.873,0.21,-0.96,1.09,1.47
11.883,0.08,-0.81,1.15,1.41
11.893,0.04,-0.86,1.15,1.43
11.903,0.11,-0.87,1.17,1.46
11.913,0.13,-0.89,1.21,1.50
11.923,0.20,-0.97,1.24,1.59
11.933,0.29,-0.99,1.31,1.67
11.943,0.37,-0.92,1.25,1.60
11.953,0.49,-0.88,1.00,1.42
11.964,0.68,-0.92,0.67,1.33
11.974,1.01,-0.81,0.50,1.39
11.984,1.30,-0.65,0.55,1.55
11.994,1.61,-0.68,0.65,1.86
12.004,1.89,-0.78,0.71,2.17
12.014,1.99,-0.95,0.76,2.33
12.024,1.80,-1.19,0.77,2.29
12.034,1.65,-1.45,0.51,2.26
12.044,1.53,-1.55,0.05,2.18
12.054,1.41,-1.47,-0.40,2.08
12.064,1.47,-1.38,-0.85,2.19
12.074,1.83,-1.24,-1.25,2.54
12.085,2.30,-0.97,-1.47,2.90
12.094,2.64,-0.58,-1.58,3.13
12.105,2.92,-0.23,-1.54,3.31
12.115,3.16,-0.08,-1.30,3.42
12.125,3.29,-0.04,-0.67,3.36
12.135,3.49,-0.12,0.20,3.50
12.145,3.69,-0.13,1.23,3.89
12.155,3.59,-0.04,2.10,4.16
12.165,3.51,0.04,2.37,4.23
12.175,3.31,0.09,2.06,3.90
12.185,3.05,0.25,1.31,3.32
12.195,2.43,0.36,0.31,2.48
12.205,1.94,0.33,-0.75,2.10
12.215,1.56,0.37,-1.63,2.29
12.226,1.27,0.50,-2.36,2.73
12.236,0.97,0.74,-2.86,3.11
12.246,0.71,0.98,-3.15,3.37
12.256,0.56,1.16,-3.20,3.45
12.266,0.29,1.28,-3.02,3.29
12.276,-0.16,1.36,-2.73,3.05
12.286,-0.62,1.36,-2.50,2.91
12.296,-1.11,1.36,-2.28,2.87
12.306,-1.48,1.38,-2.13,2.94
12.316,-1.72,1.52,-2.08,3.10
12.326,-1.84,1.60,-1.90,3.09
12.336,-1.84,1.72,-1.50,2.93
12.346,-1.65,1.85,-1.03,2.68
12.357,-1.51,1.91,-0.65,2.52
12.367,-1.44,1.82,-0.26,2.34
12.377,-1.20,1.60,0.03,2.00
12.387,-0.97,1.39,0.33,1.73
12.397,-0.91,1.15,0.45,1.53
12.407,-1.01,0.84,0.28,1.35
12.417,-1.21,0.42,-0.04,1.28
12.427,-1.26,-0.00,-0.12,1.27
12.437,-1.19,-0.34,0.18,1.25
12.447,-1.06,-0.59,0.68,1.39
12.457,-0.79,-0.93,1.21,1.72
12.468,-0.49,-1.23,1.52,2.01
12.477,-0.35,-1.57,1.56,2.24
12.488,-0.24,-1.89,1.25,2.28
12.498,-0.12,-2.12,0.59,2.20
12.508,0.00,-2.18,-0.27,2.19
12.518,0.19,-2.01,-1.04,2.27
12.528,0.37,-1.60,-1.37,2.14
12.538,1.05,-1.05,-1.25,1.94
12.548,2.07,-0.51,-0.77,2.27
12.558,2.88,-0.24,-0.21,2.90
12.568,3.37,-0.17,0.46,3.41
12.578,3.88,-0.23,0.81,3.98
12.588,4.14,-0.29,0.62,4.20
12.598,4.09,-0.24,0.16,4.10
12.609,3.88,-0.11,-0.48,3.91
12.619,3.62,0.01,-0.93,3.74
12.629,3.29,0.04,-1.05,3.46
12.639,2.94,0.07,-1.05,3.12
12.649,2.49,0.04,-0.95,2.66
12.659,1.93,-0.16,-0.89,2.13
12.669,1.51,-0.42,-0.77,1.75
12.679,1.24,-0.62,-0.66,1.54
12.689,1.00,-0.75,-0.68,1.43
12.699,0.75,-0.75,-0.85,1.36
12.709,0.59,-0.58,-1.07,1.35
12.719,0.47,-0.39,-1.27,1.41
12.730,0.29,-0.28,-1.42,1.47
12.739,0.23,-0.27,-1.53,1.57
12.750,0.21,-0.20,-1.42,1.45
12.760,0.25,-0.07,-1.13,1.16
12.770,0.38,0.05,-0.89,0.97
12.780,0.36,0.11,-0.69,0.79
12.790,0.34,0.09,-0.49,0.61
12.800,0.45,0.06,-0.21,0.50
12.810,0.56,0.01,0.08,0.56
12.820,0.67,-0.09,0.14,0.69
12.830,0.71,-0.19,-0.03,0.73
12.840,0.69,-0.13,-0.34,0.78
12.850,0.57,-0.08,-0.57,0.80
12.860,0.61,0.01,-0.51,0.80
12.871,0.95,0.11,0.01,0.96
12.881,1.56,0.21,0.84,1.78
12.891,2.00,0.22,1.52,2.52
12.901,2.34,0.22,1.92,3.04
12.911,2.46,0.22,2.09,3.24
12.921,2.25,0.23,1.97,3.00
12.931,1.94,0.24,1.59,2.52
12.941,1.61,0.39,1.13,2.01
12.951,1.35,0.51,0.69,1.60
12.961,1.22,0.67,0.29,1.42
12.971,1.18,0.88,-0.10,1.48
12.981,0.94,1.02,-0.55,1.50
12.992,0.63,1.15,-1.03,1.67
13.002,0.35,1.26,-1.44,1.95
13.012,-0.03,1.41,-1.72,2.22
13.022,-0.42,1.60,-1.91,2.53
13.032,-0.72,1.75,-1.99,2.75
13.042,-1.02,1.89,-1.88,2.85
13.052,-1.34,1.98,-1.65,2.90
13.062,-1.62,2.00,-1.38,2.92
13.072,-1.93,1.93,-0.94,2.88
13.082,-2.32,1.82,-0.43,2.98
13.092,-2.61,1.51,0.23,3.03
13.102,-2.70,1.06,1.28,3.17
13.112,-2.73,0.57,2.49,3.74
13.122,-2.81,0.06,3.30,4.33
13.133,-2.87,-0.34,3.67,4.68
13.143,-3.16,-0.90,3.63,4.90
13.153,-3.02,-0.66,3.17,4.42
13.164,-2.64,-0.03,2.28,3.49
13.173,-2.83,-0.55,1.74,3.37
13.183,-2.34,-0.52,1.54,2.85
13.193,-1.99,-0.22,1.76,2.66
13.203,-1.84,-0.38,2.01,2.75
13.213,-1.66,-0.62,2.18,2.81
13.223,-1.49,-0.71,2.28,2.81
13.234,-1.40,-0.82,2.26,2.78
13.243,-1.46,-0.94,2.05,2.68
13.254,-1.50,-0.98,1.77,2.52
13.264,-1.53,-0.89,1.62,2.40
13.274,-1.43,-0.79,1.56,2.27
13.284,-1.29,-0.72,1.51,2.11
13.294,-1.16,-0.63,1.32,1.86
13.304,-1.11,-0.59,1.06,1.64
13.314,-0.90,-0.54,0.96,1.42
13.324,-0.68,-0.45,1.09,1.36
13.334,-0.43,-0.41,1.37,1.49
13.344,-0.17,-0.40,1.62,1.68
13.354,0.14,-0.25,1.91,1.93
13.364,0.48,-0.06,2.17,2.22
13.375,0.77,0.12,2.25,2.39
13.384,1.05,0.24,2.16,2.42
13.395,1.34,0.35,2.07,2.49
13.405,1.53,0.37,1.96,2.51
13.415,1.52,0.27,1.78,2.35
13.425,1.45,0.18,1.50,2.09
13.435,1.29,0.13,1.02,1.65
13.445,1.08,0.14,0.33,1.14
13.455,0.79,0.21,-0.50,0.96
13.465,0.49,0.25,-1.30,1.41
13.475,0.16,0.31,-1.89,1.92
13.485,-0.15,0.47,-2.32,2.37
13.496,-0.28,0.70,-2.53,2.64
13.505,-0.31,1.01,-2.49,2.71
13.516,-0.35,1.33,-2.27,2.66
13.526,-0.41,1.67,-2.02,2.65
13.536,-0.50,1.86,-1.67,2.55
13.546,-0.60,1.88,-1.20,2.31
13.556,-0.70,1.85,-0.87,2.17
13.566,-0.87,1.76,-0.79,2.11
13.576,-1.16,1.58,-0.82,2.13
13.586,-1.48,1.35,-0.88,2.19
13.596,-1.70,1.19,-0.72,2.20
13.606,-1.75,1.00,-0.35,2.05
13.616,-1.59,0.72,0.17,1.76
13.626,-1.48,0.45,0.66,1.69
13.637,-1.47,0.17,1.03,1.80
13.646,-1.44,-0.09,1.28,1.93
13.657,-1.46,-0.30,1.67,2.24
13.667,-1.38,-0.46,2.08,2.54
13.677,-1.24,-0.62,2.36,2.74
13.687,-1.10,-0.75,2.42,2.77
13.697,-1.10,-0.81,2.21,2.60
13.707,-1.20,-0.90,1.77,2.32
13.717,-1.25,-0.95,1.41,2.11
13.727,-1.19,-0.92,1.25,1.96
13.737,-1.02,-0.85,1.26,1.83
13.747,-0.81,-0.72,1.32,1.70
13.758,-0.73,-0.62,1.34,1.65
13.767,-0.73,-0.56,1.27,1.57
13.778,-0.71,-0.61,1.22,1.54
13.788,-0.59,-0.66,1.24,1.52
13.798,-0.49,-0.63,1.24,1.48
13.808,-0.43,-0.65,1.09,1.34
13.818,-0.41,-0.68,0.84,1.16
13.828,-0.40,-0.71,0.66,1.05
13.838,-0.23,-0.69,0.52,0.89
13.848,-0.01,-0.54,0.54,0.76
13.858,0.04,-0.49,0.68,0.84
13.868,0.04,-0.51,0.90,1.03
13.879,0.08,-0.54,1.12,1.25
13.889,0.24,-0.53,1.26,1.39
13.899,0.53,-0.46,1.29,1.47
13.909,0.79,-0.32,1.30,1.55
13.919,0.94,-0.28,1.22,1.56
13.929,1.13,-0.34,1.05,1.58
13.939,1.28,-0.39,0.84,1.58
13.949,1.49,-0.49,0.69,1.71
13.959,1.63,-0.59,0.60,1.83
13.969,1.75,-0.71,0.55,1.96
13.979,1.97,-0.82,0.33,2.16
13.989,2.02,-0.89,-0.19,2.22
13.999,1.95,-0.98,-0.82,2.33
14.009,1.98,-1.04,-1.39,2.64
14.020,2.34,-0.97,-1.67,3.04
14.029,2.93,-0.72,-1.77,3.50
14.040,3.39,-0.49,-1.74,3.84
14.050,4.03,-0.33,-1.38,4.27
14.060,4.70,-0.23,-0.79,4.77
14.070,5.17,-0.14,-0.18,5.18
14.080,5.43,-0.20,0.38,5.45
14.090,5.63,-0.20,0.71,5.68
14.100,5.58,-0.17,0.91,5.65
14.110,4.98,-0.37,0.82,5.06
14.120,4.05,-0.67,0.37,4.12
14.130,3.40,-0.97,-0.20,3.54
14.141,2.93,-1.00,-0.66,3.17
14.150,2.57,-0.80,-0.86,2.83
14.161,2.31,-0.45,-1.07,2.58
14.171,2.08,-0.01,-1.31,2.46
14.181,1.96,0.38,-1.55,2.53
14.191,1.85,0.73,-1.84,2.71
14.201,1.58,1.06,-2.06,2.81
14.211,1.20,1.25,-2.34,2.91
14.221,0.66,1.33,-2.59,2.99
14.231,-0.09,1.35,-2.73,3.05
14.241,-0.76,1.45,-2.78,3.22
14.251,-1.33,1.81,-2.64,3.46
14.261,-1.87,2.29,-2.47,3.85
14.271,-2.30,2.64,-2.38,4.23
14.282,-2.67,2.86,-2.19,4.49
14.292,-3.04,2.95,-1.74,4.58
14.302,-3.24,2.93,-1.12,4.51
14.312,-3.25,2.88,-0.44,4.36
14.322,-3.28,2.73,0.14,4.27
14.332,-3.16,2.36,0.41,3.96
14.342,-2.97,1.94,0.47,3.58
14.352,-3.01,1.55,0.39,3.41
14.362,-3.14,0.97,0.23,3.29
14.372,-3.28,0.39,0.26,3.32
14.382,-3.46,-0.18,0.65,3.53
14.392,-3.51,-0.77,1.26,3.81
14.403,-3.42,-1.15,2.01,4.13
14.412,-3.17,-1.31,2.68,4.36
14.423,-2.81,-1.41,3.02,4.36
14.433,-2.38,-1.61,2.87,4.06
14.443,-2.12,-1.83,2.24,3.59
14.453,-2.06,-1.94,1.17,3.06
14.463,-1.93,-1.75,-0.10,2.61
14.473,-1.66,-1.33,-1.12,2.41
14.483,-0.93,-0.78,-1.72,2.10
14.493,-0.03,-0.15,-2.08,2.08
14.503,0.91,0.41,-2.11,2.33
14.513,1.90,0.81,-1.74,2.70
14.524,3.00,0.93,-0.94,3.27
14.533,4.26,1.09,-0.05,4.39
14.544,5.33,1.28,0.47,5.50
14.554,6.01,1.26,0.32,6.15
14.564,6.21,1.21,-0.16,6.33
14.574,6.05,1.19,-0.63,6.19
14.584,5.84,1.09,-0.90,6.01
14.594,5.35,0.98,-0.71,5.48
14.604,4.73,0.64,-0.34,4.78
14.614,4.11,0.14,-0.01,4.12
14.624,3.50,-0.41,0.21,3.54
14.634,2.98,-0.92,0.09,3.12
14.644,2.61,-1.23,-0.39,2.91
14.654,2.22,-1.37,-1.14,2.84
14.665,1.84,-1.45,-1.94,3.05
14.675,1.56,-1.42,-2.50,3.27
14.685,1.18,-1.33,-2.64,3.18
14.695,0.85,-1.35,-2.49,2.96
14.705,0.64,-1.47,-2.05,2.60
14.715,0.47,-1.68,-1.29,2.17
14.725,0.42,-1.80,-0.42,1.90
14.735,0.47,-1.80,0.31,1.89
14.745,0.66,-1.83,1.02,2.20
14.755,0.97,-1.65,1.51,2.44
14.765,1.14,-1.40,1.69,2.48
14.775,1.12,-1.15,1.65,2.30
14.786,1.02,-0.98,1.51,2.07
14.795,0.99,-0.77,1.39,1.87
14.806,0.94,-0.52,1.35,1.73
14.816,0.92,-0.29,1.28,1.60
14.826,0.93,-0.04,1.15,1.47
14.836,0.89,0.28,0.97,1.35
14.846,0.76,0.54,0.71,1.17
14.856,0.59,0.81,0.45,1.10
14.866,0.46,1.02,0.26,1.15
14.876,0.27,1.12,0.11,1.16
14.886,0.08,1.08,0.10,1.09
14.896,-0.13,1.04,0.24,1.07
14.906,-0.35,0.88,0.49,1.07
14.916,-0.67,0.67,0.68,1.16
14.927,-1.19,0.44,0.77,1.48
14.937,-1.87,0.17,0.75,2.02
14.947,-2.57,-0.12,0.68,2.66
14.957,-3.09,-0.30,0.67,3.17
14.967,-3.25,-0.31,0.67,3.33
14.977,-3.22,-0.06,0.58,3.28
14.987,-2.97,0.27,0.32,3.00
14.997,-2.84,0.61,-0.16,2.91
15.007,-2.78,0.95,-0.74,3.03
15.017,-2.43,1.22,-1.08,2.92
15.028,-2.15,1.40,-1.04,2.77
15.037,-2.15,1.56,-0.85,2.79
15.048,-2.23,1.68,-0.60,2.86
15.058,-2.59,1.60,-0.25,3.05
15.068,-3.03,1.46,0.37,3.38
15.078,-3.34,1.35,1.12,3.77
15.088,-3.48,1.28,1.58,4.03
15.098,-3.44,1.18,2.09,4.19
15.108,-3.36,1.10,2.49,4.32
15.118,-3.28,1.01,2.81,4.44
15.128,-2.98,0.78,3.11,4.38
15.138,-2.51,0.47,3.65,4.45
15.149,-2.04,0.25,4.27,4.74
15.158,-1.57,0.00,4.60,4.86
15.169,-1.27,-0.37,4.55,4.74
15.178,-1.24,-0.78,4.18,4.43
15.189,-1.39,-1.09,3.59,4.00
15.199,-1.41,-1.13,2.80,3.33
15.211,-1.43,-0.83,1.80,2.45
15.219,-1.52,-0.60,0.79,1.82
15.229,-1.72,-0.45,0.01,1.77
15.239,-1.80,-0.32,-0.63,1.93
15.249,-1.62,-0.18,-1.06,1.95
15.259,-1.28,0.21,-1.37,1.88
15.269,-0.69,0.72,-1.63,1.91
15.279,0.01,1.14,-1.74,2.08
15.290,0.82,1.47,-1.51,2.26
15.299,1.59,1.70,-0.98,2.53
15.310,2.29,1.74,-0.33,2.89
15.320,2.88,1.57,0.22,3.29
15.330,3.38,1.34,0.57,3.68
15.340,3.83,1.17,0.59,4.05
15.350,3.99,1.10,0.40,4.16
15.360,3.94,1.03,0.08,4.08
15.370,3.63,0.88,-0.24,3.74
15.380,2.96,0.76,-0.63,3.12
15.390,2.13,0.59,-1.17,2.50
15.400,1.21,0.39,-1.60,2.04
15.410,0.14,0.25,-1.67,1.69
15.420,-0.99,0.19,-1.50,1.81
15.431,-1.86,0.16,-1.31,2.28
15.441,-2.34,0.50,-1.12,2.64
15.451,-2.29,1.25,-1.00,2.79
15.461,-2.27,2.05,-1.10,3.25
15.471,-2.26,2.84,-1.26,3.84
15.481,-2.10,3.43,-1.48,4.29
15.491,-1.86,3.81,-1.64,4.54
15.501,-1.73,3.85,-1.75,4.57
15.511,-1.78,3.43,-1.65,4.20
15.521,-1.94,2.72,-1.12,3.53
15.531,-1.96,2.11,-0.34,2.90
15.541,-1.92,1.58,0.62,2.56
15.552,-1.93,1.00,1.50,2.64
15.561,-1.87,0.57,2.33,3.04
15.572,-1.72,0.16,2.98,3.44
15.582,-1.65,-0.25,3.31,3.70
15.592,-1.71,-0.53,3.36,3.80
15.602,-1.70,-0.74,3.06,3.58
15.612,-1.61,-0.92,2.57,3.17
15.622,-1.60,-0.96,2.00,2.73
15.632,-1.63,-0.93,1.53,2.42
15.642,-1.67,-0.99,1.24,2.30
15.652,-1.57,-1.00,1.04,2.13
15.662,-1.52,-1.11,1.08,2.17
15.673,-1.34,-1.25,1.37,2.29
15.682,-0.92,-1.28,1.64,2.27
15.693,-0.52,-1.28,1.77,2.24
15.703,-0.15,-1.16,1.70,2.06
15.713,0.17,-0.98,1.43,1.74
15.723,0.43,-0.74,0.82,1.19
15.733,0.48,-0.60,0.16,0.79
15.743,0.60,-0.64,-0.35,0.94
15.753,0.68,-0.73,-0.59,1.16
15.763,0.57,-0.93,-0.57,1.24
15.773,0.57,-1.17,-0.33,1.34
15.783,0.80,-1.27,0.24,1.52
15.793,1.14,-1.27,0.91,1.94
15.803,1.58,-1.15,1.42,2.41
15.814,1.97,-0.99,1.81,2.85
15.824,2.27,-0.79,2.08,3.18
15.834,2.48,-0.77,2.21,3.41
15.844,2.58,-0.94,2.24,3.55
15.854,2.61,-1.05,1.97,3.44
15.864,2.44,-1.21,1.32,3.03
15.874,2.11,-1.20,0.42,2.47
15.884,1.67,-1.09,-0.68,2.11
15.894,1.19,-1.20,-1.58,2.32
15.904,0.70,-1.36,-2.17,2.66
15.914,0.55,-1.35,-2.26,2.69
15.924,0.76,-1.29,-1.83,2.36
15.935,1.16,-1.18,-1.08,1.97
15.944,1.70,-1.00,-0.45,2.03
15.955,2.50,-0.70,-0.18,2.60
15.965,3.23,-0.24,-0.25,3.24
15.975,3.79,0.15,-0.42,3.82
15.985,4.40,0.58,-0.58,4.48
15.995,4.88,0.89,-0.79,5.02
16.005,5.15,1.04,-0.89,5.33
16.015,5.46,1.12,-0.77,5.63
16.025,5.65,1.19,-0.41,5.78
16.035,5.58,1.17,0.15,5.70
16.045,5.31,0.98,0.74,5.45
16.055,4.90,0.78,0.96,5.05
16.065,4.47,0.64,0.78,4.58
16.076,3.98,0.66,0.28,4.05
16.086,3.43,0.67,-0.31,3.51
16.096,2.95,0.50,-0.95,3.14
16.106,2.57,0.26,-1.63,3.05
16.116,2.05,0.18,-2.20,3.01
16.126,1.40,0.24,-2.52,2.90
16.136,0.84,0.23,-2.72,2.86
16.146,0.29,0.17,-2.67,2.69
16.156,-0.39,0.20,-2.33,2.37
16.166,-1.05,0.17,-1.98,2.25
16.176,-1.81,0.18,-1.71,2.50
16.186,-2.50,0.37,-1.54,2.96
16.197,-3.20,0.70,-1.43,3.57
16.207,-3.71,1.10,-1.23,4.06
16.217,-3.79,1.66,-0.82,4.22
16.227,-3.78,2.41,-0.32,4.50
16.237,-3.56,2.99,0.10,4.65
16.247,-3.14,3.24,0.36,4.53
16.257,-2.91,3.34,0.46,4.45
16.267,-2.85,3.31,0.35,4.38
16.277,-2.83,3.02,0.19,4.14
16.287,-2.91,2.56,-0.01,3.87
16.297,-3.10,2.00,-0.19,3.69
16.307,-3.19,1.41,-0.22,3.50
16.318,-3.22,0.83,-0.25,3.34
16.327,-3.19,0.26,-0.24,3.21
16.338,-2.95,-0.27,-0.06,2.96
16.348,-2.45,-0.74,0.36,2.58
16.358,-1.91,-1.09,0.82,2.35
16.368,-1.51,-1.46,1.19,2.42
16.378,-1.16,-1.78,1.24,2.46
16.388,-0.93,-2.04,0.93,2.43
16.398,-0.78,-2.12,0.40,2.30
16.408,-0.56,-2.08,-0.19,2.16
16.418,-0.22,-1.96,-0.69,2.09
16.428,0.23,-1.69,-1.00,1.98
16.438,0.86,-1.29,-1.16,1.94
16.448,1.70,-0.89,-1.25,2.29
16.459,2.61,-0.41,-1.20,2.90
16.469,3.51,0.09,-1.12,3.69
16.479,4.49,0.47,-1.00,4.62
16.489,5.35,0.67,-0.78,5.44
16.499,6.05,0.70,-0.45,6.11
16.509,6.44,0.78,-0.19,6.49
16.519,6.21,0.74,-0.08,6.25
16.529,5.48,0.59,-0.05,5.51
16.539,4.54,0.51,0.05,4.57
16.549,3.91,0.41,0.33,3.94
16.559,3.44,0.21,0.68,3.51
16.569,3.04,0.01,0.90,3.17
16.580,2.69,-0.15,0.68,2.78
16.590,2.25,-0.28,-0.03,2.26
16.600,1.78,-0.39,-1.07,2.11
16.610,1.34,-0.34,-2.01,2.44
16.620,0.96,-0.26,-2.63,2.81
16.630,0.67,-0.29,-2.82,2.91
16.640,0.58,-0.34,-2.58,2.67
16.650,0.56,-0.25,-1.92,2.02
16.660,0.51,-0.16,-1.11,1.23
16.670,0.35,-0.18,-0.37,0.54
16.680,0.05,-0.33,0.19,0.39
16.690,-0.23,-0.51,0.66,0.87
16.701,-0.43,-0.64,1.09,1.34
16.710,-0.59,-0.64,1.29,1.56
16.721,-0.65,-0.48,1.33,1.55
16.731,-0.54,-0.23,1.26,1.39
16.741,-0.44,0.07,1.06,1.15
16.751,-0.44,0.35,0.77,0.96
16.761,-0.56,0.52,0.42,0.87
16.771,-0.79,0.70,0.14,1.07
16.781,-1.03,0.80,0.09,1.31
16.791,-1.11,0.80,0.29,1.40
16.801,-0.91,0.84,0.68,1.42
16.811,-0.80,0.91,0.91,1.52
16.821,-0.69,0.91,0.93,1.48
16.831,-0.64,0.75,0.70,1.20
16.841,-0.68,0.64,0.38,1.01
16.851,-0.81,0.49,-0.02,0.95
16.862,-1.02,0.30,-0.41,1.14
16.872,-1.30,0.09,-0.74,1.50
16.882,-1.74,-0.06,-0.92,1.97
16.892,-2.08,-0.23,-0.81,2.25
16.902,-2.25,-0.28,-0.50,2.32
16.912,-2.31,-0.16,-0.06,2.32
16.922,-2.45,0.01,0.25,2.47
16.932,-2.68,0.24,0.20,2.70
16.942,-2.97,0.57,-0.18,3.03
16.952,-3.31,0.98,-0.54,3.49
16.962,-3.30,1.50,-0.87,3.73
16.972,-3.16,1.84,-1.06,3.81
16.983,-3.24,2.11,-0.75,3.94
16.993,-3.29,2.34,0.10,4.04
17.003,-3.15,2.41,1.25,4.16
17.013,-2.79,2.38,2.41,4.38
17.023,-2.30,2.11,3.41,4.62
17.033,-1.90,1.67,4.15,4.86
17.043,-1.56,1.15,4.42,4.83
17.053,-1.32,0.81,4.26,4.53
17.063,-1.12,0.72,3.74,3.97
17.073,-0.90,0.68,3.03,3.23
17.084,-0.65,0.57,2.38,2.53
17.094,-0.29,0.42,1.80,1.87
17.104,-0.10,0.16,1.34,1.35
17.114,0.04,-0.27,0.97,1.01
17.124,0.15,-0.66,0.79,1.04
17.134,0.25,-0.85,0.75,1.17
17.144,0.36,-0.83,0.75,1.18
17.154,0.53,-0.80,0.65,1.16
17.164,0.77,-0.63,0.37,1.06
17.174,0.91,-0.28,0.01,0.95
17.184,1.09,0.06,-0.49,1.20
17.194,1.33,0.23,-1.05,1.71
17.204,1.43,0.30,-1.52,2.10
17.214,1.46,0.19,-1.82,2.35
17.225,1.54,-0.03,-1.87,2.42
17.235,1.54,-0.17,-1.60,2.23
17.245,1.48,-0.29,-1.12,1.88
17.255,1.40,-0.26,-0.61,1.55
17.265,1.39,-0.18,-0.11,1.41
17.275,1.45,-0.14,0.30,1.49
17.285,1.54,-0.08,0.58,1.64
17.295,1.65,0.00,0.57,1.75
17.305,1.45,0.14,0.09,1.46
17.315,0.78,0.12,-0.77,1.10
17.326,0.24,0.08,-1.54,1.56
17.335,-0.14,0.30,-1.87,1.90
17.345,-0.38,0.54,-1.91,2.02
17.356,-0.71,0.72,-1.80,2.06
17.366,-0.92,0.89,-1.71,2.14
17.376,-1.03,1.11,-1.59,2.20
17.386,-1.11,1.36,-1.38,2.23
17.396,-1.20,1.64,-1.08,2.30
17.406,-1.34,2.00,-0.76,2.52
17.416,-1.46,2.21,-0.64,2.73
17.426,-1.35,2.33,-0.63,2.77
17.436,-1.30,2.55,-0.77,2.96
17.446,-1.27,2.70,-0.98,3.14
17.456,-1.33,2.59,-1.08,3.11
17.467,-1.48,2.32,-0.75,2.85
17.476,-1.55,1.95,0.02,2.50
17.487,-1.61,1.53,0.90,2.40
17.497,-1.82,1.08,1.59,2.64
17.507,-1.98,0.63,1.99,2.88
17.517,-2.15,0.20,2.19,3.08
17.527,-2.29,-0.17,2.32,3.26
17.537,-2.30,-0.36,2.33,3.29
17.547,-2.21,-0.45,2.26,3.19
17.557,-2.08,-0.51,2.16,3.04
17.567,-2.06,-0.54,2.09,2.98
17.577,-2.04,-0.65,2.14,3.02
17.587,-1.95,-0.77,2.23,3.06
17.597,-1.78,-0.80,2.26,2.99
17.608,-1.53,-0.80,2.18,2.78
17.618,-1.24,-0.74,1.96,2.43
17.628,-0.94,-0.66,1.64,2.00
17.638,-0.74,-0.61,1.27,1.59
17.648,-0.49,-0.58,0.93,1.21
17.658,-0.33,-0.60,0.76,1.02
17.668,-0.43,-0.68,0.64,1.03
17.678,-0.43,-0.94,0.49,1.14
17.688,-0.45,-1.18,0.47,1.35
17.698,-0.53,-1.30,0.50,1.49
17.708,-0.36,-1.32,0.52,1.46
17.718,-0.14,-1.13,0.57,1.27
17.728,-0.07,-0.93,0.60,1.11
17.739,0.06,-0.80,0.57,0.98
17.749,0.31,-0.77,0.55,0.99
17.759,0.73,-0.69,0.59,1.17
17.769,1.25,-0.60,0.69,1.54
17.779,1.59,-0.58,0.83,1.88
17.789,1.71,-0.56,0.76,1.95
17.799,1.64,-0.50,0.33,1.75
17.809,1.50,-0.46,-0.23,1.58
17.819,1.25,-0.44,-0.66,1.48
17.829,0.93,-0.45,-1.02,1.45
17.839,0.66,-0.45,-1.24,1.47
17.849,0.56,-0.34,-1.31,1.47
17.859,0.82,-0.19,-1.29,1.54
17.870,1.09,-0.12,-1.34,1.74
17.880,1.29,-0.23,-1.39,1.91
17.890,1.70,-0.29,-1.32,2.17
17.900,2.16,-0.12,-1.21,2.48
17.910,2.86,0.14,-1.13,3.08
17.920,3.64,0.46,-1.17,3.85
17.930,4.24,0.53,-1.24,4.45
17.940,4.54,0.56,-1.34,4.77
17.950,4.52,0.63,-1.30,4.74
17.960,4.41,0.79,-1.08,4.60
17.971,4.25,1.06,-0.64,4.43
17.980,4.24,1.35,-0.04,4.45
17.991,4.66,1.49,0.52,4.92
18.001,5.25,1.51,0.86,5.53
18.011,5.51,1.32,0.81,5.72
18.021,5.57,0.95,-0.04,5.65
18.031,5.37,0.48,-1.29,5.55
18.041,4.80,0.21,-2.51,5.42
18.051,4.05,-0.02,-3.49,5.35
18.061,3.06,-0.22,-4.03,5.06
18.071,1.84,-0.40,-3.95,4.37
18.081,0.81,-0.43,-3.30,3.43
18.091,0.00,-0.21,-2.73,2.74
18.101,-0.89,0.12,-2.48,2.64
18.111,-1.85,0.62,-2.66,3.30
18.121,-2.82,1.12,-3.13,4.36
18.132,-3.55,1.73,-3.59,5.33
18.142,-3.78,2.41,-3.55,5.71
18.152,-3.81,2.89,-2.81,5.55
18.162,-3.60,3.00,-1.39,4.89
18.172,-3.28,2.90,0.11,4.38
18.182,-3.20,2.67,1.05,4.30
18.192,-3.15,2.34,1.57,4.23
18.202,-3.02,2.05,1.93,4.12
18.212,-2.85,1.82,2.12,3.99
18.222,-2.84,1.57,2.12,3.88
18.232,-2.79,1.01,2.05,3.61
18.242,-2.69,0.31,2.08,3.42
18.253,-2.56,-0.45,2.23,3.43
18.263,-2.38,-1.14,2.62,3.72
18.273,-2.22,-1.65,3.11,4.17
18.283,-1.96,-1.97,3.44,4.42
18.293,-1.57,-2.06,3.41,4.29
18.303,-1.21,-2.02,2.97,3.79
18.313,-0.95,-1.93,2.15,3.04
18.323,-0.78,-1.94,1.32,2.47
18.333,-0.36,-2.01,0.69,2.16
18.343,0.24,-1.86,0.38,1.91
18.353,0.75,-1.62,0.26,1.80
18.363,1.37,-1.43,0.19,1.99
18.374,1.99,-1.29,0.16,2.38
18.384,2.52,-1.06,0.14,2.74
18.394,2.93,-0.86,0.19,3.06
18.404,3.29,-0.66,0.08,3.36
18.414,3.35,-0.38,-0.07,3.37
18.424,3.33,-0.27,-0.30,3.35
18.434,3.33,-0.23,-0.61,3.40
18.444,3.22,-0.13,-0.84,3.33
18.454,3.12,0.08,-1.02,3.28
18.464,3.03,0.31,-1.25,3.29
18.474,2.71,0.48,-1.48,3.12
18.484,2.19,0.53,-1.54,2.73
18.495,1.72,0.43,-1.29,2.19
18.504,1.40,0.23,-0.95,1.70
18.515,1.07,0.04,-0.68,1.27
18.525,0.76,-0.12,-0.59,0.97
18.535,0.53,-0.25,-0.66,0.88
18.545,0.41,-0.38,-0.71,0.90
18.555,0.29,-0.48,-0.70,0.90
18.565,0.27,-0.62,-0.61,0.91
18.575,0.29,-0.75,-0.47,0.94
18.585,0.33,-0.77,-0.31,0.89
18.595,0.29,-0.76,-0.16,0.83
18.605,0.31,-0.85,-0.02,0.91
18.615,0.30,-0.85,0.08,0.90
18.625,0.24,-0.84,0.18,0.89
18.636,0.15,-0.84,0.22,0.88
18.646,0.08,-0.76,0.14,0.78
18.656,0.03,-0.59,0.02,0.60
18.666,0.07,-0.41,-0.03,0.42
18.676,0.17,-0.15,-0.09,0.24
18.686,0.32,0.08,-0.12,0.35
18.696,0.44,0.27,-0.04,0.52
18.706,0.54,0.43,-0.02,0.69
18.716,0.64,0.60,0.00,0.88
18.726,0.64,0.76,-0.00,0.99
18.736,0.70,0.75,-0.14,1.04
18.746,0.84,0.70,-0.21,1.12
18.757,1.00,0.64,0.04,1.19
18.766,1.32,0.57,0.51,1.53
18.777,1.66,0.47,1.05,2.02
18.787,1.82,0.27,1.44,2.34
18.797,1.71,-0.10,1.51,2.29
18.807,1.15,-0.52,1.30,1.81
18.817,0.40,-0.94,0.94,1.38
18.827,-0.26,-1.22,0.35,1.29
18.837,-1.06,-1.10,-0.39,1.58
18.847,-1.66,-0.82,-0.93,2.07
18.857,-1.98,-0.37,-1.29,2.39
18.867,-2.28,0.23,-1.53,2.75
18.878,-2.46,0.71,-1.67,3.06
18.887,-2.54,1.23,-1.87,3.38
18.898,-2.70,1.79,-2.02,3.82
18.908,-2.78,1.98,-1.92,3.91
18.918,-2.62,1.97,-1.22,3.50
18.928,-2.33,1.87,-0.04,2.99
18.938,-2.06,1.70,1.09,2.89
18.948,-1.68,1.57,2.06,3.08
18.958,-1.30,1.37,2.77,3.35
18.968,-1.03,1.19,3.20,3.56
18.978,-0.89,0.88,3.23,3.46
18.988,-0.92,0.46,2.99,3.17
18.998,-1.02,0.20,2.67,2.86
19.008,-1.09,0.02,2.37,2.61
19.019,-1.20,-0.26,2.12,2.45
19.029,-1.40,-0.55,1.91,2.43
19.039,-1.62,-0.82,1.69,2.48
19.049,-1.71,-1.01,1.43,2.45
19.059,-1.77,-1.06,1.11,2.34
19.069,-1.77,-1.04,0.93,2.25
19.079,-1.74,-1.02,0.84,2.18
19.089,-1.78,-0.91,0.64,2.10
19.099,-1.83,-0.71,0.44,2.01
19.109,-1.83,-0.44,0.26,1.90
19.119,-1.67,-0.10,0.32,1.70
19.129,-1.46,0.18,0.52,1.56
19.140,-1.33,0.45,0.77,1.60
19.150,-1.09,0.69,1.18,1.75
19.160,-0.72,0.93,1.65,2.02
19.170,-0.18,1.12,2.11,2.39
19.180,0.30,1.23,2.31,2.63
19.190,0.56,1.15,2.21,2.55
19.200,0.46,1.02,2.03,2.32
19.210,0.38,0.86,1.57,1.83
19.220,0.23,0.70,0.94,1.20
19.230,0.00,0.62,0.29,0.69
19.240,-0.23,0.54,-0.43,0.73
19.250,-0.47,0.56,-1.03,1.26
19.261,-0.64,0.58,-1.48,1.71
19.270,-0.76,0.62,-1.85,2.09
19.281,-0.87,0.73,-2.22,2.50
19.291,-0.92,0.91,-2.45,2.77
19.301,-1.02,1.08,-2.45,2.86
19.311,-1.06,1.23,-2.16,2.70
19.321,-0.99,1.38,-1.74,2.43
19.331,-0.91,1.49,-1.40,2.24
19.341,-0.88,1.50,-1.13,2.08
19.351,-0.81,1.58,-0.88,1.98
19.361,-0.83,1.63,-0.87,2.02
19.371,-1.13,1.61,-1.02,2.22
19.381,-1.37,1.57,-1.18,2.39
19.391,-1.47,1.50,-1.10,2.37
19.402,-1.36,1.43,-0.72,2.10
19.412,-1.22,1.35,-0.12,1.82
19.422,-1.09,1.25,0.62,1.77
19.432,-0.95,1.11,1.31,1.97
19.442,-0.85,0.97,1.90,2.29
19.452,-0.73,0.73,2.33,2.55
19.462,-0.63,0.58,2.67,2.80
19.472,-0.53,0.42,2.83,2.91
19.482,-0.54,0.23,2.77,2.83
19.492,-0.69,-0.03,2.56,2.65
19.502,-0.82,-0.31,2.29,2.45
19.512,-0.89,-0.37,2.07,2.28
19.522,-0.91,-0.42,2.06,2.29
19.533,-0.86,-0.46,2.28,2.48
19.543,-0.69,-0.45,2.63,2.75
19.553,-0.45,-0.60,2.82,2.92
19.563,-0.26,-0.77,2.75,2.86
19.573,-0.20,-0.93,2.54,2.71
19.583,-0.29,-1.11,2.31,2.58
19.593,-0.25,-1.16,2.04,2.36
19.603,-0.27,-1.13,1.71,2.07
19.613,-0.30,-1.06,1.30,1.70
19.623,-0.32,-0.93,0.86,1.31
19.633,-0.29,-0.80,0.47,0.97
19.643,-0.38,-0.78,0.07,0.87
19.653,-0.36,-0.77,-0.22,0.88
19.664,-0.24,-0.79,-0.22,0.86
19.674,0.10,-0.77,0.00,0.78
19.684,0.57,-0.70,0.30,0.95
19.694,0.93,-0.57,0.44,1.17
19.704,1.19,-0.46,0.38,1.33
19.714,1.39,-0.47,0.31,1.50
19.724,1.51,-0.52,0.41,1.65
19.734,1.63,-0.53,0.62,1.82
19.744,1.56,-0.70,0.77,1.88
19.754,1.44,-0.97,0.79,1.91
19.764,1.29,-1.11,0.59,1.80
19.774,1.05,-1.14,0.09,1.55
19.785,0.82,-1.18,-0.50,1.52
19.794,0.62,-1.23,-1.06,1.74
19.805,0.57,-1.18,-1.54,2.02
19.815,0.57,-1.01,-1.88,2.21
19.825,0.59,-0.90,-2.12,2.37
19.835,0.52,-0.91,-2.25,2.48
19.845,0.41,-0.99,-2.10,2.36
19.855,0.28,-1.01,-1.65,1.95
19.865,0.30,-0.92,-0.85,1.29
19.875,0.48,-0.75,-0.06,0.90
19.885,0.56,-0.46,0.31,0.78
19.895,0.47,-0.08,0.29,0.56
19.906,0.51,0.26,-0.06,0.58
19.915,0.47,0.63,-0.62,1.01
19.926,0.39,0.94,-1.05,1.47
19.936,0.38,1.10,-1.17,1.65
19.946,0.36,1.24,-1.08,1.68
19.956,0.47,1.33,-1.02,1.74
19.966,0.47,1.30,-1.27,1.88
19.976,0.26,1.10,-1.72,2.06
19.986,0.10,0.80,-2.16,2.30
19.996,0.10,0.57,-2.30,2.37
20.006,0.22,0.44,-2.19,2.24
20.016,0.42,0.26,-1.99,2.05
20.026,0.69,0.10,-1.85,1.98
20.036,0.81,0.06,-1.74,1.92
20.047,0.90,0.05,-1.60,1.84
20.057,1.06,0.05,-1.44,1.78
20.067,1.16,0.12,-1.30,1.74
20.077,1.30,0.24,-1.16,1.76
20.087,1.43,0.40,-0.93,1.76
20.097,1.60,0.55,-0.75,1.85
20.107,1.81,0.68,-0.63,2.03
20.117,1.84,0.81,-0.54,2.08
20.127,1.80,0.87,-0.56,2.08
20.137,1.68,0.80,-0.73,2.00
20.147,1.49,0.78,-0.96,1.94
20.157,1.20,0.79,-1.19,1.87
20.168,1.00,0.78,-1.41,1.90
20.178,0.69,0.71,-1.61,1.90
20.188,0.32,0.62,-1.92,2.04
20.198,-0.05,0.46,-2.20,2.24
20.208,-0.25,0.33,-2.21,2.25
20.218,-0.32,0.25,-1.95,1.99
20.228,-0.18,0.20,-1.43,1.46
20.238,0.26,0.17,-0.58,0.66
20.248,0.72,0.07,0.25,0.77
20.258,1.20,-0.18,0.80,1.45
20.268,1.68,-0.46,1.17,2.10
20.278,2.05,-0.68,1.42,2.58
20.289,2.40,-0.93,1.42,2.94
20.298,2.76,-1.00,1.35,3.23
20.309,2.99,-0.96,1.27,3.39
20.319,3.12,-0.86,1.19,3.45
20.329,3.21,-0.75,1.30,3.54
20.339,3.16,-0.74,1.44,3.55
20.349,2.98,-0.71,1.57,3.45
20.359,3.09,-0.52,1.51,3.48
20.369,3.23,-0.19,0.86,3.35
20.379,3.13,0.06,-0.36,3.15
20.389,2.77,0.16,-1.60,3.21
20.399,2.43,0.24,-2.66,3.61
20.409,2.32,0.38,-3.39,4.12
20.419,2.20,0.61,-3.45,4.13
20.430,2.13,0.68,-3.10,3.82
20.440,2.03,0.49,-2.66,3.38
20.450,1.68,0.23,-2.33,2.88
20.460,1.08,-0.09,-2.04,2.31
20.470,0.69,-0.31,-1.89,2.04
20.480,0.17,-0.48,-1.94,2.01
20.490,-0.43,-0.64,-1.99,2.13
20.500,-0.82,-0.76,-2.07,2.35
20.510,-1.09,-0.73,-1.93,2.33
20.520,-1.12,-0.70,-1.49,1.99
20.530,-1.00,-0.72,-0.96,1.56
20.540,-1.03,-0.80,-0.50,1.40
20.551,-1.15,-0.99,-0.24,1.54
20.560,-1.18,-1.11,-0.13,1.63
20.571,-1.13,-1.09,0.03,1.57
20.581,-1.10,-0.98,0.13,1.48
20.591,-1.17,-0.89,0.20,1.49
20.601,-1.06,-0.78,0.28,1.35
20.611,-0.83,-0.57,0.26,1.04
20.621,-0.68,-0.37,0.20,0.80
20.631,-0.45,-0.21,0.14,0.52
20.641,-0.20,-0.17,0.19,0.32
20.651,-0.07,-0.22,0.46,0.51
20.661,-0.06,-0.39,0.84,0.93
20.671,-0.03,-0.64,1.18,1.34
20.681,-0.07,-0.83,1.37,1.61
20.692,-0.14,-1.09,1.43,1.80
20.702,-0.18,-1.24,1.38,1.86
20.712,-0.29,-1.28,1.25,1.81
20.722,-0.22,-1.25,0.91,1.56
20.732,-0.12,-1.11,0.46,1.21
20.742,-0.26,-1.06,-0.12,1.10
20.752,-0.48,-1.15,-0.62,1.39
20.762,-0.61,-1.16,-0.99,1.64
20.772,-0.65,-1.21,-1.25,1.85
20.782,-0.76,-1.39,-1.31,2.06
20.792,-0.88,-1.57,-1.40,2.28
20.802,-1.11,-1.60,-1.68,2.57
20.813,-1.56,-1.49,-2.09,3.01
20.823,-1.98,-1.17,-2.50,3.40
20.833,-2.33,-0.72,-2.89,3.78
20.843,-2.42,-0.16,-3.14,3.97
20.853,-2.20,0.40,-3.00,3.74
20.863,-1.80,0.88,-2.44,3.15
20.873,-1.18,1.19,-1.32,2.14
20.883,-0.49,1.29,-0.07,1.38
20.893,0.36,1.30,1.18,1.79
20.903,1.20,1.00,2.54,2.98
20.913,1.74,0.55,3.71,4.13
20.923,1.92,0.38,4.76,5.14
20.934,1.92,0.17,5.10,5.45
20.944,1.58,-0.03,4.89,5.14
20.954,0.99,-0.02,4.13,4.24
20.964,0.36,0.13,3.05,3.07
20.974,0.02,0.24,2.42,2.44
20.984,-0.13,0.35,1.92,1.96
20.994,-0.43,0.37,1.41,1.52
21.004,-0.65,0.34,0.98,1.22
21.014,-0.80,0.31,0.68,1.10
21.024,-0.82,0.20,0.54,1.00
21.034,-0.72,0.16,0.66,0.99
21.044,-0.64,0.35,0.88,1.14
21.055,-0.58,0.52,0.95,1.23
21.064,-0.56,0.80,0.95,1.36
21.075,-0.53,1.14,1.05,1.64
21.085,-0.56,1.35,1.06,1.81
21.095,-0.60,1.43,1.18,1.95
21.105,-0.60,1.46,1.40,2.11
21.115,-0.59,1.47,1.70,2.32
21.125,-0.49,1.48,2.00,2.54
21.135,-0.56,1.42,2.04,2.55
21.145,-0.87,1.23,1.79,2.34
21.155,-1.13,0.96,1.35,2.01
21.165,-1.32,0.72,1.02,1.82
21.175,-1.40,0.44,0.92,1.73
21.185,-1.35,0.06,0.92,1.63
21.196,-1.28,-0.22,0.88,1.56
21.205,-1.32,-0.39,0.54,1.48
21.216,-1.52,-0.52,-0.00,1.60
21.226,-2.00,-0.60,-0.59,2.17
21.236,-2.58,-0.62,-1.26,2.94
21.246,-3.20,-0.40,-1.95,3.77
21.256,-4.11,-0.08,-2.54,4.83
21.266,-5.02,0.27,-2.79,5.75
21.276,-5.52,0.86,-2.66,6.18
21.286,-5.43,1.50,-2.12,6.02
21.296,-4.96,2.19,-0.98,5.51
21.306,-4.05,2.69,0.29,4.87
21.317,-2.91,3.38,1.62,4.75
21.326,-1.74,3.57,2.56,4.73
21.337,-0.89,3.54,3.27,4.90
21.347,-0.10,3.66,3.87,5.33
21.357,0.66,3.46,4.20,5.49
21.367,1.28,3.06,4.09,5.27
21.377,1.42,2.76,3.86,4.95
21.387,1.24,2.34,3.25,4.19
21.397,0.77,1.78,2.36,3.06
21.407,0.02,1.19,1.78,2.15
21.417,-0.55,0.77,1.73,1.97
21.427,-1.04,0.45,1.99,2.29
21.438,-1.21,0.03,2.40,2.69
21.447,-1.12,-0.35,2.74,2.98
21.458,-0.86,-0.67,2.97,3.16
21.468,-0.45,-0.82,2.87,3.02
21.478,-0.15,-0.85,2.35,2.51
21.488,0.11,-0.83,1.51,1.73
21.498,0.39,-0.72,0.72,1.09
21.508,0.44,-0.65,0.13,0.79
21.518,0.36,-0.68,-0.17,0.79
21.528,0.27,-0.76,-0.24,0.84
21.538,0.19,-0.81,-0.21,0.86
21.548,0.10,-0.90,-0.13,0.91
21.558,0.13,-0.91,0.06,0.93
21.568,0.21,-0.89,0.33,0.97
21.579,0.29,-0.99,0.66,1.22
21.589,0.49,-1.13,0.98,1.57
21.599,0.72,-1.24,1.20,1.87
21.609,0.96,-1.31,1.23,2.04
21.619,1.10,-1.34,1.11,2.06
21.629,1.10,-1.29,0.82,1.89
21.639,1.07,-1.28,0.50,1.74
21.649,1.07,-1.27,0.16,1.67
21.659,1.10,-1.12,-0.07,1.57
21.669,1.12,-0.96,-0.17,1.49
21.679,1.21,-0.72,-0.06,1.41
21.689,1.22,-0.67,0.09,1.39
21.700,1.09,-0.74,0.26,1.34
21.709,0.82,-0.73,0.27,1.13
21.720,0.42,-0.64,0.06,0.77
21.730,0.02,-0.44,-0.31,0.54
21.740,-0.31,-0.20,-0.82,0.90
21.750,-0.53,0.06,-1.19,1.31
21.760,-0.45,0.42,-1.31,1.45
21.770,-0.12,0.84,-1.21,1.48
21.780,0.15,1.19,-1.05,1.59
21.790,0.32,1.38,-1.06,1.77
21.800,0.51,1.33,-0.95,1.72
21.810,0.78,1.05,-0.69,1.48
21.821,1.07,0.72,-0.47,1.38
21.830,1.28,0.45,-0.42,1.42
21.841,1.22,0.17,-0.77,1.45
21.851,0.95,0.05,-1.34,1.65
21.861,0.62,0.05,-1.87,1.97
21.871,0.53,0.08,-2.04,2.11
21.881,0.44,0.20,-1.92,1.98
21.891,0.46,0.25,-1.58,1.67
21.901,0.58,0.26,-1.17,1.33
21.911,0.60,0.25,-0.95,1.15
21.921,0.48,0.15,-0.95,1.07
21.931,0.21,0.02,-1.04,1.06
21.941,-0.05,-0.14,-1.11,1.12
21.951,-0.15,-0.31,-1.02,1.07
21.962,-0.07,-0.38,-0.80,0.89
21.972,0.12,-0.33,-0.66,0.75
21.982,0.26,-0.23,-0.67,0.75
21.992,0.33,-0.22,-0.85,0.94
22.002,0.29,-0.27,-1.29,1.35
22.012,0.20,-0.28,-1.69,1.72
22.022,0.29,-0.28,-1.87,1.92
22.032,0.49,-0.24,-1.69,1.78
22.042,0.76,-0.21,-1.27,1.49
22.052,1.15,-0.12,-0.89,1.46
22.062,1.57,-0.05,-0.60,1.68
22.072,1.90,0.02,-0.43,1.95
22.083,2.23,-0.02,-0.29,2.25
22.092,2.51,-0.17,-0.15,2.52
22.103,2.73,-0.34,-0.08,2.75
22.113,2.94,-0.52,-0.07,2.99
22.123,3.11,-0.70,-0.05,3.18
22.133,3.31,-0.83,-0.06,3.41
22.143,3.46,-0.92,-0.03,3.58
22.153,3.56,-0.94,0.17,3.68
22.163,3.55,-0.89,0.35,3.68
22.173,3.47,-0.86,0.52,3.61
22.183,3.44,-1.00,0.68,3.65
22.193,3.27,-1.26,0.71,3.57
22.203,3.13,-1.39,0.56,3.47
22.213,3.05,-1.49,0.13,3.39
22.224,2.90,-1.58,-0.53,3.34
22.234,2.66,-1.52,-1.19,3.29
22.244,2.56,-1.28,-1.55,3.26
22.254,2.52,-1.06,-1.53,3.13
22.264,2.41,-1.01,-1.37,2.95
22.274,2.30,-1.00,-1.20,2.78
22.284,2.19,-1.02,-1.00,2.61
22.294,2.18,-0.98,-0.92,2.57
22.304,2.05,-0.82,-1.04,2.44
22.314,1.79,-0.54,-1.28,2.27
22.324,1.65,-0.46,-1.54,2.31
22.334,1.41,-0.32,-1.99,2.46
22.345,0.99,-0.16,-2.37,2.57
22.354,0.72,-0.07,-2.91,3.00
22.365,0.32,0.21,-3.42,3.44
22.375,-0.14,0.39,-3.43,3.46
22.385,-0.13,0.50,-2.88,2.93
22.395,0.21,0.68,-1.88,2.01
22.405,0.46,0.70,-0.91,1.24
22.415,0.53,0.66,-0.30,0.90
22.425,0.32,0.50,-0.04,0.60
22.435,-0.01,0.45,0.24,0.52
22.445,-0.22,0.49,0.50,0.73
22.455,-0.29,0.58,0.67,0.93
22.466,-0.26,0.73,0.59,0.98
22.475,-0.14,1.01,0.40,1.09
22.486,-0.20,1.26,0.10,1.28
22.496,-0.19,1.31,-0.25,1.35
22.506,0.11,1.32,-0.34,1.36
22.516,0.35,1.34,-0.15,1.39
22.526,0.45,1.17,0.04,1.26
22.536,0.62,1.03,0.26,1.23
22.546,0.70,0.91,0.38,1.21
22.556,0.77,0.89,0.40,1.24
22.566,0.73,0.83,0.20,1.12
22.576,0.56,0.71,-0.07,0.90
22.586,0.55,0.69,-0.27,0.92
22.596,0.57,0.79,-0.38,1.05
22.607,0.57,0.80,-0.41,1.07
22.616,0.66,0.69,-0.57,1.11
22.627,0.60,0.54,-0.68,1.06
22.637,0.48,0.32,-0.89,1.06
22.647,0.35,0.02,-0.98,1.04
22.657,0.21,-0.37,-0.89,0.98
22.667,0.07,-0.82,-0.63,1.03
22.677,-0.04,-1.27,-0.31,1.30
22.687,-0.16,-1.64,-0.04,1.65
22.697,-0.32,-1.91,0.02,1.94
22.707,-0.47,-1.95,-0.19,2.02
22.717,-0.55,-1.67,-0.57,1.85
22.728,-0.64,-1.13,-1.01,1.64
22.737,-0.90,-0.54,-1.57,1.89
22.748,-1.13,-0.10,-1.91,2.22
22.758,-1.26,0.08,-2.14,2.48
22.768,-1.41,0.10,-2.16,2.58
22.778,-1.59,-0.09,-1.70,2.33
22.788,-1.43,-0.38,-0.82,1.69
22.798,-1.18,-0.50,0.22,1.30
22.808,-1.03,-0.58,1.21,1.69
22.818,-0.96,-0.73,1.93,2.28
22.828,-0.92,-0.91,2.32,2.65
22.838,-0.91,-1.02,2.49,2.83
22.848,-0.90,-0.93,2.61,2.92
22.858,-0.76,-0.85,2.53,2.78
22.869,-0.70,-0.67,2.39,2.58
22.879,-0.79,-0.48,2.21,2.40
22.889,-0.87,-0.48,2.01,2.24
22.899,-0.96,-0.46,1.99,2.26
22.909,-0.93,-0.28,2.15,2.36
22.919,-0.75,-0.06,2.41,2.53
22.929,-0.54,0.11,2.74,2.79
22.939,-0.40,0.31,2.99,3.03
22.949,-0.24,0.55,3.03,3.08
22.959,-0.05,0.80,2.86,2.96
22.969,-0.01,1.01,2.52,2.71
22.979,0.02,1.15,2.09,2.38
22.990,0.04,1.31,1.68,2.14
23.000,0.02,1.48,1.42,2.05
23.010,0.15,1.55,1.31,2.04
23.020,0.37,1.55,1.33,2.07
23.030,0.44,1.41,1.36,2.01
23.040,0.42,1.06,1.35,1.77
23.050,0.33,0.67,1.39,1.58
23.060,0.20,0.32,1.58,1.62
23.070,0.21,0.11,1.74,1.76
23.080,0.21,0.14,1.60,1.62
23.090,0.11,0.14,1.12,1.13
23.100,0.09,0.05,0.42,0.44
23.111,0.05,-0.02,-0.25,0.26
23.120,-0.11,-0.07,-0.81,0.82
23.131,-0.33,-0.15,-1.06,1.12
23.141,-0.47,-0.19,-1.04,1.16
23.151,-0.63,-0.11,-0.77,1.00
23.161,-0.90,-0.05,-0.37,0.98
23.171,-1.24,-0.10,-0.22,1.27
23.181,-1.68,-0.06,-0.36,1.71
23.191,-2.21,0.09,-0.68,2.32
23.201,-2.66,0.36,-1.02,2.88
23.211,-2.72,0.80,-1.07,3.03
23.221,-2.58,1.33,-0.98,3.06
23.231,-2.35,1.87,-0.68,3.08
23.241,-2.01,2.22,-0.22,3.01
23.252,-1.67,2.33,0.32,2.89
23.261,-1.46,2.21,0.99,2.83
23.272,-1.29,1.92,1.46,2.74
23.282,-1.29,1.65,1.98,2.88
23.292,-1.33,1.47,2.37,3.09
23.302,-1.23,1.28,2.69,3.22
23.312,-1.33,1.06,2.78,3.26
23.322,-1.56,0.74,2.64,3.15
23.332,-1.79,0.36,2.59,3.17
23.342,-1.43,0.81,1.86,2.48
23.352,-1.75,0.46,1.41,2.30
23.362,-1.69,0.16,1.15,2.05
23.373,-1.50,0.08,1.00,1.80
23.383,-1.53,-0.05,0.97,1.81
23.393,-1.41,-0.15,0.96,1.71
23.403,-1.24,-0.28,1.05,1.65
23.413,-1.12,-0.30,1.22,1.68
23.423,-0.89,-0.42,1.31,1.64
23.433,-0.82,-0.48,1.45,1.73
23.443,-0.71,-0.60,1.41,1.69
23.453,-0.65,-0.70,1.12,1.48
23.463,-0.65,-0.62,0.88,1.26
23.473,-0.35,-0.55,0.73,0.97
23.483,0.05,-0.35,0.89,0.96
23.493,0.49,-0.24,1.07,1.20
23.503,0.96,-0.33,1.22,1.58
23.514,1.35,-0.39,1.47,2.04
23.524,1.76,-0.53,1.64,2.46
23.534,2.10,-0.86,1.87,2.94
23.544,2.14,-1.14,2.20,3.28
23.554,2.14,-1.37,2.46,3.54
23.564,1.95,-1.57,2.61,3.62
23.574,1.63,-1.51,2.59,3.42
23.584,1.11,-1.36,2.15,2.77
23.594,0.90,-1.22,1.85,2.39
23.604,1.02,-1.00,1.75,2.26
23.614,1.03,-0.53,1.55,1.94
23.625,1.21,-0.04,1.25,1.74
23.635,1.30,0.32,0.89,1.60
23.645,1.19,0.42,0.37,1.32
23.655,1.03,0.48,-0.14,1.14
23.665,0.76,0.42,-0.53,1.02
23.675,0.55,0.23,-0.82,1.01
23.685,0.16,-0.02,-1.12,1.13
23.695,-0.37,-0.16,-1.55,1.60
23.705,-1.05,-0.11,-2.15,2.40
23.715,-1.74,-0.01,-2.92,3.40
23.725,-2.26,0.13,-3.69,4.33
23.735,-2.62,0.36,-4.02,4.81
23.745,-2.54,0.75,-3.87,4.69
23.756,-2.11,1.13,-3.36,4.12
23.766,-1.54,1.33,-2.77,3.43
23.776,-1.00,1.35,-2.38,2.91
23.786,-0.67,1.14,-2.42,2.76
23.796,-0.52,0.96,-2.64,2.86
23.806,-0.15,0.87,-2.50,2.65
23.816,0.33,0.63,-2.01,2.13
23.826,0.66,0.45,-1.26,1.49
23.836,0.88,0.37,-0.53,1.09
23.846,1.00,0.25,-0.02,1.03
23.856,1.10,0.07,0.19,1.12
23.866,1.19,0.02,0.15,1.20
23.876,1.22,0.07,-0.01,1.23
23.886,1.18,0.04,-0.17,1.20
23.897,1.12,0.13,-0.15,1.14
23.907,1.07,0.19,0.10,1.09
23.917,1.12,0.04,0.42,1.19
23.927,1.16,-0.11,0.76,1.39
23.937,1.06,-0.28,1.07,1.54
23.947,0.92,-0.44,1.18,1.56
23.957,0.65,-0.45,1.01,1.29
23.967,0.29,-0.34,0.58,0.73
23.977,-0.01,-0.23,0.07,0.24
23.987,-0.13,-0.16,-0.25,0.32
23.997,-0.19,-0.10,-0.30,0.36
24.007,-0.27,-0.23,-0.31,0.47
24.018,-0.34,-0.40,-0.34,0.63
24.028,-0.40,-0.62,-0.40,0.84
24.038,-0.33,-0.79,-0.38,0.94
24.048,-0.04,-0.79,-0.18,0.81
24.058,0.23,-0.76,0.07,0.80
24.068,0.48,-0.78,0.15,0.93
24.078,0.69,-0.75,0.17,1.03
24.088,0.92,-0.71,0.22,1.19
24.098,1.18,-0.77,0.22,1.43
24.108,1.30,-0.91,0.03,1.59
24.118,1.35,-1.09,-0.16,1.74
24.128,1.33,-1.29,-0.30,1.88
24.139,1.30,-1.42,-0.38,1.96
24.149,1.33,-1.56,-0.43,2.09
24.159,1.51,-1.61,-0.38,2.24
24.169,1.80,-1.53,-0.31,2.38
24.179,2.14,-1.32,-0.28,2.53
24.189,2.43,-1.13,-0.25,2.70
24.199,2.71,-0.96,-0.26,2.88
24.209,2.97,-0.70,-0.14,3.05
24.219,3.03,-0.63,-0.05,3.10
24.229,2.98,-0.64,0.02,3.04
24.239,2.68,-0.64,0.02,2.76
24.249,2.41,-0.65,-0.14,2.50
24.260,2.26,-0.52,-0.39,2.35
24.269,2.20,-0.29,-0.57,2.29
24.280,2.15,-0.05,-0.54,2.22
24.290,2.11,0.10,-0.28,2.13
24.300,2.27,0.26,0.03,2.29
24.310,2.46,0.41,0.30,2.51
24.320,2.59,0.49,0.35,2.66
24.330,2.63,0.52,0.35,2.70
24.340,2.56,0.53,0.26,2.63
24.350,2.49,0.51,0.12,2.55
24.360,2.43,0.46,-0.04,2.47
24.370,2.33,0.42,-0.20,2.37
24.380,2.11,0.31,-0.39,2.16
24.390,1.83,0.18,-0.65,1.95
24.401,1.54,0.07,-0.79,1.74
24.410,1.36,-0.11,-0.69,1.53
24.421,1.23,-0.30,-0.41,1.33
24.431,1.08,-0.39,-0.06,1.15
24.441,1.00,-0.40,0.24,1.11
24.451,0.81,-0.44,0.33,0.98
24.461,0.55,-0.39,0.33,0.75
24.471,0.40,-0.25,0.29,0.56
24.481,0.33,-0.04,0.13,0.36
24.491,0.20,0.22,-0.02,0.30
24.501,0.24,0.50,-0.04,0.55
24.511,0.42,0.69,0.04,0.81
24.522,0.52,0.85,0.22,1.02
24.532,0.58,0.95,0.40,1.19
24.542,0.57,1.08,0.56,1.34
24.552,0.55,1.14,0.68,1.43
24.562,0.48,1.13,0.73,1.42
24.572,0.36,1.04,0.74,1.33
24.582,0.19,0.83,0.65,1.07
24.592,0.03,0.75,0.53,0.92
24.602,-0.07,0.79,0.45,0.91
24.612,-0.05,0.79,0.44,0.90
24.622,0.06,0.65,0.51,0.83
24.632,0.15,0.50,0.54,0.75
24.643,0.32,0.34,0.41,0.62
24.652,0.28,0.18,0.11,0.35
24.663,-0.01,0.01,-0.31,0.31
24.673,-0.39,-0.24,-0.67,0.81
24.683,-0.86,-0.59,-1.03,1.46
24.693,-1.26,-0.81,-1.33,2.00
24.703,-1.57,-0.77,-1.69,2.44
24.713,-1.79,-0.59,-2.02,2.76
24.723,-2.13,-0.40,-2.36,3.20
24.733,-2.47,-0.35,-2.72,3.69
24.743,-2.85,-0.26,-2.88,4.06
24.753,-3.23,-0.25,-2.97,4.40
24.763,-3.50,-0.35,-2.89,4.55
24.773,-3.73,-0.54,-2.54,4.55
24.784,-3.82,-0.73,-1.73,4.26
24.793,-3.80,-0.86,-0.67,3.95
24.804,-3.76,-0.82,0.39,3.86
24.814,-3.58,-0.53,1.51,3.93
24.824,-3.20,-0.20,2.71,4.20
24.834,-2.67,0.05,3.98,4.79
24.844,-1.93,0.20,4.92,5.29
24.854,-1.30,0.41,5.39,5.56
24.864,-0.78,0.72,5.48,5.58
24.874,-0.43,0.89,5.12,5.21
24.884,-0.19,0.83,4.37,4.45
24.894,-0.26,0.77,3.37,3.47
24.905,-0.60,0.88,2.34,2.57
24.915,-0.81,0.97,1.64,2.07
24.925,-0.79,0.87,1.28,1.74
24.935,-0.83,0.74,1.06,1.54
24.945,-0.95,0.63,0.93,1.47
24.955,-1.20,0.43,0.89,1.55
24.965,-1.31,0.22,0.79,1.55
24.975,-1.28,0.10,0.58,1.41
24.985,-1.17,0.09,0.38,1.24
24.995,-0.96,0.19,0.30,1.02
25.005,-0.70,0.33,0.30,0.83
25.015,-0.42,0.44,0.42,0.74
25.025,-0.21,0.50,0.61,0.82
25.035,-0.17,0.36,0.69,0.79
25.046,-0.12,0.30,0.65,0.73
25.056,-0.10,0.25,0.46,0.53
25.066,-0.33,0.17,0.27,0.46
25.076,-0.64,-0.00,0.27,0.70
25.086,-0.93,-0.23,0.42,1.05
25.096,-1.15,-0.40,0.73,1.42
25.106,-1.37,-0.55,0.93,1.74
25.116,-1.68,-0.57,0.96,2.02
25.126,-2.22,-0.66,0.84,2.47
25.136,-2.95,-0.69,0.69,3.10
25.146,-3.57,-0.45,0.46,3.63
25.156,-4.07,-0.03,0.27,4.08
25.167,-4.35,0.54,0.27,4.40
25.176,-4.30,1.30,0.41,4.51
25.187,-4.19,2.12,0.46,4.71
25.197,-4.02,2.66,0.36,4.83
25.207,-3.71,3.00,0.47,4.80
25.217,-3.39,3.17,0.73,4.70
25.227,-3.01,3.17,1.08,4.51
25.237,-2.38,3.07,1.57,4.19
25.247,-1.70,3.00,1.95,3.96
25.257,-1.30,2.88,2.14,3.82
25.268,-1.10,2.77,2.34,3.79
25.277,-0.85,2.54,2.59,3.73
25.288,-0.62,2.23,2.83,3.65
25.297,-0.37,1.80,3.16,3.66
25.308,-0.17,1.41,3.36,3.65
25.318,-0.09,0.92,3.26,3.39
25.328,-0.19,0.38,2.78,2.82
25.338,-0.34,-0.11,2.02,2.06
25.348,-0.56,-0.36,1.23,1.40
25.358,-0.70,-0.37,0.67,1.04
25.368,-0.82,-0.37,0.21,0.92
25.378,-1.04,-0.45,-0.22,1.15
25.388,-1.16,-0.49,-0.47,1.34
25.398,-1.13,-0.66,-0.50,1.40
25.408,-1.00,-0.89,-0.32,1.37
25.418,-0.80,-1.02,-0.06,1.30
25.429,-0.64,-1.10,-0.00,1.27
25.439,-0.54,-1.07,0.03,1.20
25.449,-0.25,-0.85,0.16,0.90
25.459,0.13,-0.62,0.29,0.69
25.469,0.59,-0.41,0.32,0.79
25.479,1.05,-0.33,0.35,1.15
25.489,1.47,-0.27,0.30,1.52
25.499,1.84,-0.33,0.14,1.88
25.509,2.23,-0.49,0.01,2.29
25.519,2.53,-0.58,-0.04,2.60
25.530,2.65,-0.64,0.12,2.73
25.539,2.71,-0.73,0.52,2.85
25.550,2.76,-0.81,0.78,2.98
25.559,2.82,-0.84,0.90,3.08
25.570,2.83,-0.75,0.80,3.03
25.580,2.59,-0.77,0.50,2.74
25.590,2.50,-0.64,0.07,2.58
25.600,2.54,-0.39,-0.51,2.62
25.610,2.63,0.01,-1.19,2.89
25.620,2.68,0.28,-1.68,3.17
25.630,2.71,0.20,-1.88,3.30
25.640,2.59,-0.03,-1.73,3.11
25.650,2.48,-0.41,-1.36,2.86
25.660,2.22,-0.84,-0.89,2.54
25.671,1.93,-1.05,-0.45,2.24
25.680,1.54,-1.05,-0.15,1.87
25.691,1.39,-0.98,0.12,1.70
25.701,1.63,-0.88,0.23,1.87
25.711,2.28,-0.60,0.16,2.36
25.721,2.94,-0.16,-0.03,2.94
25.731,3.66,0.12,-0.21,3.67
25.741,4.36,0.26,-0.70,4.43
25.751,4.70,0.40,-1.21,4.87
25.761,4.92,0.40,-1.52,5.16
25.771,4.94,0.31,-1.63,5.21
25.781,4.59,0.08,-1.49,4.83
25.791,3.91,-0.20,-1.00,4.04
25.801,3.13,-0.34,-0.41,3.18
25.812,2.16,-0.54,-0.13,2.22
25.822,1.00,-0.50,-0.32,1.16
25.832,-0.13,-0.16,-0.67,0.70
25.842,-1.10,0.37,-0.94,1.49
25.852,-1.81,1.08,-1.22,2.44
25.862,-2.44,1.60,-1.73,3.39
25.872,-2.88,1.91,-2.03,4.01
25.882,-3.21,2.15,-2.11,4.40
25.892,-3.45,2.18,-1.97,4.53
25.902,-3.52,2.02,-1.65,4.38
25.912,-3.58,1.75,-1.25,4.18
25.922,-3.68,1.42,-0.84,4.04
25.933,-3.79,1.18,-0.57,4.01
25.942,-3.69,1.01,-0.43,3.85
25.953,-3.52,0.88,-0.40,3.65
25.963,-3.40,0.77,-0.45,3.52
25.973,-3.09,0.65,-0.56,3.20
25.983,-2.62,0.46,-0.64,2.74
25.993,-2.08,0.17,-0.69,2.19
26.003,-1.29,-0.07,-0.56,1.41
26.013,-0.48,-0.31,-0.47,0.74
26.023,0.24,-0.53,-0.60,0.84
26.034,0.77,-0.65,-0.82,1.30
26.043,1.28,-0.57,-0.94,1.68
26.054,1.96,-0.37,-0.73,2.12
26.063,2.80,-0.07,-0.18,2.81
26.074,3.74,0.19,0.59,3.80
26.084,4.65,0.28,1.41,4.87
26.094,5.40,0.50,2.21,5.86
26.104,5.89,0.65,2.90,6.60
26.114,6.13,0.52,3.36,7.01
26.124,5.90,0.32,3.32,6.78
26.134,5.15,-0.06,2.46,5.71
26.144,4.05,-0.40,1.11,4.21
26.154,3.36,-0.82,0.06,3.46
26.164,2.95,-1.18,-1.03,3.33
26.174,2.34,-1.20,-2.15,3.39
26.184,1.75,-1.06,-3.33,3.91
26.195,1.39,-1.01,-4.45,4.77
26.205,1.15,-0.97,-4.94,5.16
26.215,0.96,-0.94,-4.83,5.01
26.225,0.85,-0.90,-4.30,4.47
26.235,0.79,-0.89,-3.48,3.68
26.245,0.70,-1.00,-2.70,2.96
26.255,0.50,-1.12,-2.05,2.39
26.265,0.20,-1.17,-1.79,2.15
26.275,-0.09,-1.19,-1.67,2.05
26.285,-0.24,-1.19,-1.38,1.84
26.295,-0.26,-1.15,-0.94,1.51
26.305,-0.26,-1.07,-0.41,1.18
26.316,-0.15,-0.97,0.05,0.98
26.325,-0.03,-0.74,0.52,0.90
26.336,0.02,-0.38,0.79,0.87
26.346,0.10,-0.11,0.69,0.71
26.356,0.19,0.02,0.51,0.54
26.366,0.27,0.15,0.42,0.52
26.376,0.20,0.11,0.41,0.47
26.386,0.11,0.08,0.32,0.35
26.396,0.04,-0.04,0.26,0.27
26.406,0.02,-0.30,0.39,0.49
26.416,0.01,-0.56,0.69,0.89
26.426,0.04,-0.75,1.05,1.29
26.437,0.08,-0.89,1.43,1.69
26.446,0.16,-0.88,1.75,1.96
26.457,0.28,-0.78,1.89,2.07
26.467,0.34,-0.72,1.81,1.98
26.477,0.30,-0.72,1.58,1.76
26.487,0.22,-0.65,1.34,1.51
26.497,0.21,-0.48,1.01,1.14
26.507,0.27,-0.30,0.58,0.70
26.517,0.35,-0.14,0.21,0.43
26.527,0.35,-0.01,0.00,0.35
26.537,0.42,0.18,-0.18,0.49
26.547,0.46,0.31,-0.46,0.72
26.558,0.51,0.37,-0.81,1.02
26.567,0.43,0.38,-1.22,1.35
26.578,0.11,0.28,-1.64,1.67
26.588,-0.36,0.02,-1.98,2.02
26.598,-0.68,-0.18,-2.31,2.41
26.608,-0.80,-0.13,-2.47,2.60
26.618,-0.82,-0.02,-2.62,2.74
26.628,-0.84,-0.09,-2.57,2.70
26.638,-0.84,-0.17,-2.10,2.27
26.648,-0.90,-0.40,-1.15,1.52
26.658,-1.06,-0.63,-0.11,1.24
26.668,-1.39,-0.77,0.79,1.77
26.678,-1.83,-0.81,1.63,2.58
26.688,-2.08,-0.60,2.67,3.44
26.699,-1.73,-0.10,3.59,3.99
26.709,-1.32,0.40,4.56,4.76
26.719,-0.74,0.79,5.14,5.25
26.729,-0.04,0.97,5.04,5.13
26.739,0.27,0.92,4.41,4.51
26.749,0.19,0.82,3.56,3.65
26.759,0.03,0.58,2.66,2.73
26.769,-0.14,0.32,2.19,2.22
26.779,-0.49,0.08,2.19,2.25
26.789,-0.82,-0.07,2.42,2.56
26.799,-1.06,-0.12,2.60,2.81
26.809,-1.23,-0.13,2.54,2.82
26.819,-1.43,-0.06,2.34,2.74
26.829,-1.54,-0.05,2.04,2.56
26.840,-1.55,-0.16,1.75,2.34
26.850,-1.52,-0.22,1.49,2.14
26.860,-1.48,-0.22,1.32,1.99
26.870,-1.46,-0.13,1.23,1.92
26.880,-1.51,0.04,1.16,1.90
26.890,-1.51,0.28,1.23,1.96
26.900,-1.50,0.59,1.52,2.21
26.910,-1.49,0.91,1.91,2.59
26.920,-1.33,1.08,2.31,2.88
26.930,-1.21,1.20,2.57,3.08
26.940,-1.13,1.26,2.57,3.07
26.950,-0.99,1.34,2.51,3.02
26.961,-0.86,1.49,2.45,2.99
26.971,-0.81,1.65,2.31,2.95
26.981,-0.82,1.73,2.31,3.00
26.991,-0.82,1.66,2.35,2.99
27.001,-0.82,1.41,2.33,2.85
27.011,-0.86,1.07,1.97,2.40
27.021,-1.11,0.73,1.03,1.68
27.031,-1.51,0.45,-0.15,1.58
27.041,-1.90,0.34,-1.11,2.22
27.051,-2.32,0.21,-1.64,2.85
27.061,-2.64,0.31,-1.95,3.30
27.071,-2.72,0.47,-2.09,3.46
27.081,-2.77,0.75,-2.31,3.68
27.091,-2.99,1.05,-2.43,3.99
27.102,-3.33,1.29,-2.41,4.31
27.112,-3.65,1.64,-2.22,4.58
27.122,-3.73,2.03,-1.80,4.62
27.132,-3.56,2.25,-1.17,4.36
27.142,-3.18,2.37,-0.34,3.98
27.152,-2.71,2.48,0.45,3.70
27.162,-2.21,2.54,1.08,3.54
27.172,-1.95,2.61,1.39,3.54
27.182,-1.86,2.72,1.68,3.70
27.192,-1.56,2.60,2.07,3.67
27.203,-1.15,2.20,2.49,3.52
27.212,-0.73,1.86,2.83,3.47
27.223,-0.45,1.48,2.94,3.32
27.233,-0.25,0.93,2.70,2.87
27.243,-0.18,0.35,2.18,2.22
27.253,-0.26,-0.04,1.48,1.50
27.263,-0.48,-0.27,0.74,0.92
27.273,-0.64,-0.39,0.09,0.75
27.283,-0.71,-0.43,-0.24,0.87
27.293,-0.73,-0.34,-0.29,0.86
27.303,-0.82,-0.36,-0.13,0.91
27.313,-0.70,-0.45,0.14,0.84
27.323,-0.35,-0.54,0.49,0.81
27.333,0.06,-0.51,0.92,1.06
27.344,0.39,-0.58,1.27,1.45
27.354,0.65,-0.70,1.51,1.79
27.364,0.86,-0.83,1.60,2.00
27.374,0.98,-0.85,1.44,1.94
27.384,0.97,-0.76,1.05,1.62
27.394,0.88,-0.60,0.56,1.20
27.404,0.81,-0.44,0.17,0.94
27.414,0.83,-0.29,-0.03,0.88
27.424,0.83,-0.23,-0.02,0.86
27.434,0.98,-0.39,0.19,1.07
27.444,1.15,-0.65,0.55,1.43
27.454,1.31,-0.90,0.90,1.83
27.464,1.50,-1.09,1.05,2.13
27.474,1.69,-1.27,1.10,2.38
27.485,1.83,-1.43,1.05,2.55
27.494,1.90,-1.53,0.95,2.62
27.505,1.98,-1.47,0.83,2.61
27.515,2.07,-1.41,0.46,2.55
27.525,2.12,-1.46,0.07,2.58
27.535,2.11,-1.48,-0.25,2.59
27.545,2.11,-1.44,-0.42,2.58
27.555,2.23,-1.35,-0.37,2.63
27.565,2.46,-1.27,-0.05,2.77
27.575,2.76,-1.27,0.59,3.10
27.585,3.07,-1.25,1.23,3.54
27.595,3.10,-1.37,1.38,3.66
27.606,3.01,-1.45,1.17,3.54
27.616,2.66,-1.46,0.45,3.06
27.626,2.00,-1.26,-0.52,2.42
27.636,1.54,-0.93,-1.31,2.23
27.646,1.22,-0.61,-1.72,2.19
27.656,0.99,-0.32,-1.55,1.86
27.666,0.88,-0.16,-1.17,1.47
27.676,0.89,-0.07,-0.72,1.15
27.686,0.96,-0.02,-0.33,1.02
27.696,1.04,0.10,-0.04,1.05
27.706,1.07,0.20,0.06,1.09
27.716,1.10,0.30,-0.03,1.14
27.726,0.93,0.43,-0.20,1.05
27.737,0.68,0.49,-0.46,0.96
27.747,0.55,0.60,-0.62,1.02
27.757,0.38,0.73,-0.60,1.02
27.767,0.29,0.81,-0.58,1.04
27.777,0.14,0.84,-0.67,1.09
27.787,-0.04,0.85,-0.86,1.21
27.797,-0.07,0.88,-0.99,1.33
27.807,-0.03,0.96,-1.06,1.43
27.817,0.03,0.99,-1.14,1.51
27.827,0.02,1.02,-1.30,1.65
27.837,-0.09,1.03,-1.50,1.82
27.847,-0.06,1.10,-1.49,1.85
27.857,0.06,1.15,-1.27,1.71
27.868,0.22,1.19,-0.95,1.54
27.878,0.43,1.15,-0.58,1.36
27.888,0.68,1.18,-0.25,1.38
27.898,0.94,1.15,0.06,1.48
27.908,1.21,1.00,0.31,1.60
27.918,1.27,0.83,0.40,1.56
27.928,1.14,0.54,0.23,1.28
27.938,0.97,0.09,-0.18,0.99
27.948,0.98,-0.23,-0.41,1.09
27.958,1.16,-0.36,-0.27,1.25
27.968,1.51,-0.55,0.10,1.61
27.978,1.91,-0.84,0.41,2.13
27.989,2.48,-1.04,0.37,2.71
27.999,2.86,-1.25,0.12,3.13
28.009,3.06,-1.40,-0.28,3.38
28.019,3.26,-1.59,-0.63,3.68
28.029,3.24,-1.66,-0.98,3.77
28.039,3.16,-1.60,-1.12,3.71
28.049,3.04,-1.60,-1.20,3.63
28.059,2.85,-1.63,-1.18,3.49
28.069,2.50,-1.61,-1.04,3.15
28.079,2.28,-1.48,-0.88,2.86
28.090,2.26,-1.36,-0.72,2.74
28.099,2.13,-1.21,-0.57,2.52
28.110,1.76,-1.11,-0.67,2.19
28.119,1.33,-1.06,-0.85,1.90
28.130,0.93,-0.88,-0.98,1.62
28.140,0.62,-0.59,-0.93,1.27
28.150,0.43,-0.25,-0.93,1.05
28.160,0.23,0.04,-1.03,1.06
28.170,0.04,0.29,-1.09,1.13
28.180,-0.19,0.46,-1.04,1.15
28.190,-0.26,0.38,-0.78,0.91
28.200,-0.16,0.37,-0.35,0.53
28.210,0.01,0.42,0.07,0.43
28.220,0.26,0.46,0.33,0.62
28.231,0.52,0.57,0.40,0.87
28.241,0.78,0.82,0.32,1.17
28.251,0.96,1.06,0.31,1.46
28.260,1.08,1.02,0.27,1.51
28.271,1.16,0.81,0.25,1.44
28.281,1.16,0.60,0.31,1.34
28.291,0.99,0.32,0.39,1.12
28.301,0.82,-0.01,0.40,0.91
28.311,0.67,-0.24,0.40,0.82
28.321,0.51,-0.43,0.44,0.80
28.331,0.43,-0.49,0.49,0.82
28.341,0.50,-0.48,0.56,0.90
28.351,0.64,-0.40,0.64,0.99
28.361,0.54,-0.34,0.52,0.83
28.372,0.45,-0.30,0.25,0.59
28.381,0.38,-0.19,0.09,0.44
28.392,0.44,-0.07,0.13,0.46
28.402,0.55,0.04,0.17,0.58
28.412,0.54,0.03,0.18,0.57
28.422,0.50,-0.02,0.02,0.50
28.432,0.34,-0.11,-0.20,0.41
28.442,0.27,-0.21,-0.45,0.57
28.452,0.32,-0.33,-0.58,0.74
28.462,0.40,-0.38,-0.65,0.86
28.472,0.46,-0.41,-0.67,0.91
28.482,0.51,-0.53,-0.71,1.02
28.493,0.56,-0.68,-0.68,1.11
28.502,0.58,-0.81,-0.75,1.25
28.513,0.45,-0.97,-0.90,1.40
28.523,0.23,-1.04,-1.13,1.55
28.533,0.01,-1.20,-1.43,1.87
28.543,-0.28,-1.33,-1.59,2.09
28.553,-0.65,-1.29,-1.75,2.27
28.563,-0.92,-1.31,-1.86,2.46
28.573,-1.08,-1.15,-1.95,2.50
28.583,-1.39,-0.95,-2.01,2.62
28.593,-1.79,-0.72,-2.14,2.88
28.603,-2.12,-0.48,-2.20,3.09
28.613,-2.43,-0.07,-2.25,3.31
28.623,-2.59,0.36,-2.21,3.42
28.634,-2.67,0.71,-2.02,3.42
28.644,-2.76,0.84,-1.53,3.27
28.654,-2.69,0.83,-0.83,2.93
28.664,-2.69,0.91,-0.25,2.85
28.674,-2.69,0.78,0.08,2.80
28.684,-2.55,0.65,0.46,2.67
28.694,-2.40,0.74,0.92,2.67
28.704,-2.00,0.97,1.77,2.84
28.714,-1.41,1.03,2.80,3.30
28.724,-0.77,0.83,3.82,3.99
28.734,-0.15,0.59,4.48,4.52
28.744,0.30,0.28,4.94,4.96
28.755,0.52,-0.06,5.03,5.05
28.765,0.65,-0.29,4.68,4.73
28.775,0.54,-0.43,4.00,4.06
28.785,0.22,-0.44,3.12,3.16
28.795,-0.18,-0.32,2.31,2.34
28.805,-0.34,-0.14,1.88,1.91
28.815,-0.22,0.01,1.70,1.71
28.825,-0.21,0.06,1.48,1.50
28.835,-0.47,-0.06,1.09,1.19
28.845,-0.78,-0.22,0.65,1.04
28.855,-0.86,-0.31,0.29,0.96
28.865,-0.79,-0.29,0.11,0.85
28.875,-0.80,-0.18,-0.14,0.84
28.885,-0.80,-0.03,-0.29,0.85
28.896,-0.92,0.16,-0.44,1.03
28.906,-1.08,0.23,-0.44,1.19
28.916,-1.20,0.15,-0.20,1.23
28.926,-1.21,0.02,0.21,1.23
28.936,-1.30,-0.19,0.56,1.43
28.946,-1.41,-0.42,0.85,1.70
28.956,-1.48,-0.58,1.09,1.93
28.966,-1.56,-0.57,1.20,2.05
28.976,-1.62,-0.43,1.16,2.04
28.986,-1.68,-0.25,1.00,1.97
28.996,-1.79,-0.13,0.81,1.97
29.006,-1.94,-0.06,0.78,2.09
29.017,-2.10,0.08,0.73,2.23
29.027,-2.17,0.16,0.34,2.20
29.037,-2.31,0.33,-0.21,2.34
29.047,-2.52,0.64,-0.62,2.67
29.057,-2.70,0.96,-0.83,2.99
29.067,-2.76,1.21,-0.76,3.11
29.077,-2.65,1.57,-0.45,3.12
29.087,-2.58,1.86,-0.05,3.18
29.097,-2.44,2.00,0.44,3.19
29.107,-2.19,2.07,0.95,3.16
29.117,-1.93,2.04,1.37,3.13
29.127,-1.66,1.94,1.55,2.99
29.137,-1.31,1.76,1.65,2.75
29.147,-1.02,1.58,1.70,2.54
29.158,-0.87,1.48,1.81,2.50
29.168,-0.74,1.40,1.97,2.52
29.178,-0.42,1.25,2.19,2.56
29.188,-0.06,1.02,2.33,2.54
29.198,0.14,0.81,2.33,2.47
29.208,0.17,0.57,2.25,2.33
29.218,0.11,0.25,1.88,1.90
29.228,-0.09,-0.04,1.36,1.36
29.238,-0.31,-0.40,0.93,1.06
29.248,-0.51,-0.67,0.65,1.06
29.258,-0.54,-0.77,0.46,1.05
29.268,-0.38,-0.70,0.38,0.88
29.279,-0.42,-0.61,0.35,0.82
29.289,-0.48,-0.60,0.09,0.78
29.299,-0.52,-0.49,0.01,0.72
29.309,-0.49,-0.37,0.14,0.63
29.319,-0.24,-0.32,0.41,0.57
29.329,0.04,-0.23,0.69,0.73
29.339,0.37,-0.04,1.00,1.07
29.349,0.70,0.11,1.22,1.41
29.359,0.85,0.31,1.35,1.63
29.369,1.02,0.32,1.39,1.76
29.379,1.32,0.17,1.31,1.87
29.389,1.53,-0.00,1.23,1.96
29.400,1.64,-0.29,1.25,2.08
29.409,1.90,-0.48,1.41,2.41
29.420,2.12,-0.50,1.52,2.66
29.430,2.23,-0.53,1.34,2.65
29.440,2.34,-0.55,0.98,2.60
29.450,2.40,-0.43,0.67,2.53
29.460,2.22,-0.30,0.38,2.27
29.470,2.08,-0.14,0.25,2.10
29.480,2.16,0.06,0.32,2.18
29.490,2.12,0.29,0.49,2.20
29.500,2.08,0.42,0.52,2.19
29.510,1.93,0.40,0.36,2.00
29.521,1.60,0.37,-0.05,1.65
29.530,1.19,0.33,-0.69,1.42
29.541,0.75,0.22,-1.23,1.46
29.551,0.37,0.08,-1.74,1.78
29.561,0.05,0.10,-1.89,1.89
29.571,0.05,0.16,-1.78,1.79
29.581,0.22,0.34,-1.33,1.39
29.591,0.58,0.63,-0.73,1.12
29.601,0.94,0.91,-0.13,1.32
29.611,1.38,1.16,0.54,1.88
29.621,1.76,1.38,1.04,2.46
29.631,1.96,1.47,1.35,2.80
29.642,2.08,1.42,1.43,2.89
29.651,2.06,1.28,1.21,2.71
29.662,1.78,1.04,0.84,2.23
29.672,1.25,0.85,0.23,1.53
29.682,0.58,0.66,-0.48,1.00
29.692,0.06,0.41,-0.97,1.05
29.702,-0.17,0.24,-1.06,1.10
29.712,-0.25,0.14,-1.20,1.23
29.722,-0.19,0.02,-1.15,1.16
29.732,-0.30,-0.22,-1.09,1.15
29.742,-0.38,-0.54,-1.09,1.28
29.752,-0.63,-0.85,-1.18,1.59
29.762,-0.76,-1.13,-1.26,1.85
29.772,-0.90,-1.29,-1.26,2.02
29.783,-0.94,-1.37,-1.34,2.13
29.792,-1.03,-1.42,-1.35,2.22
29.803,-1.06,-1.47,-1.38,2.28
29.813,-0.88,-1.46,-1.39,2.20
29.823,-0.58,-1.41,-1.46,2.11
29.833,-0.47,-1.33,-1.58,2.12
29.843,-0.39,-1.34,-1.66,2.17
29.853,-0.18,-1.42,-1.61,2.15
29.863,0.11,-1.45,-1.39,2.01
29.873,0.44,-1.40,-1.03,1.79
29.883,0.83,-1.33,-0.71,1.72
29.893,1.13,-1.23,-0.54,1.75
29.904,1.42,-1.10,-0.39,1.84
29.913,1.66,-0.98,-0.13,1.93
29.924,1.82,-0.84,0.08,2.00
29.934,1.89,-0.77,0.09,2.04
29.944,1.85,-0.66,-0.08,1.97
29.954,1.77,-0.51,-0.35,1.88
29.964,1.91,-0.32,-0.57,2.02
29.974,2.19,-0.10,-0.56,2.26
29.984,2.65,0.15,-0.39,2.69
29.994,3.20,0.39,-0.11,3.22
30.004,3.64,0.59,0.12,3.69
30.014,4.03,0.67,0.27,4.10
30.025,4.10,0.65,0.23,4.16
30.035,3.81,0.46,0.05,3.84
30.045,3.14,0.15,-0.28,3.16
30.055,2.57,-0.07,-0.69,2.66
30.065,2.27,-0.24,-0.98,2.48
30.075,1.90,-0.35,-1.17,2.26
30.085,1.55,-0.40,-1.44,2.15
30.095,1.09,-0.52,-1.75,2.12
30.105,0.63,-0.60,-2.16,2.33
30.115,0.09,-0.53,-2.32,2.38
30.125,-0.35,-0.46,-2.43,2.50
30.135,-0.65,-0.39,-2.47,2.58
30.145,-0.85,-0.39,-2.32,2.50
30.155,-0.86,-0.37,-2.03,2.23
30.166,-0.78,-0.44,-1.57,1.81
30.176,-0.70,-0.77,-1.09,1.51
30.186,-0.50,-0.99,-0.63,1.27
30.196,-0.29,-1.05,-0.29,1.13
30.206,-0.13,-1.18,-0.16,1.20
30.216,-0.08,-1.27,-0.36,1.33
30.226,-0.11,-1.23,-0.77,1.46
30.236,-0.15,-1.16,-1.21,1.68
30.246,-0.16,-1.02,-1.53,1.85
30.256,-0.26,-0.95,-1.71,1.97
30.266,-0.48,-0.98,-1.78,2.09
30.276,-0.68,-0.98,-1.65,2.04
30.287,-0.62,-0.94,-1.31,1.73
30.296,-0.26,-0.94,-0.83,1.28
30.307,-0.05,-0.90,-0.30,0.95
30.317,-0.04,-0.78,0.09,0.79
30.327,-0.06,-0.63,0.25,0.68
30.337,-0.10,-0.36,0.27,0.46
30.347,-0.06,-0.11,0.31,0.33
30.357,0.04,0.24,0.28,0.38
30.367,0.17,0.79,0.14,0.82
30.377,0.09,1.28,0.01,1.28
30.387,0.15,1.43,-0.28,1.47
30.397,0.24,1.49,-0.54,1.60
30.407,0.35,1.59,-0.47,1.69
30.417,0.55,1.59,-0.40,1.73
30.428,0.86,1.47,-0.33,1.73
30.438,0.97,1.28,-0.34,1.64
30.448,0.98,1.03,-0.35,1.46
30.458,0.79,0.79,-0.39,1.19
30.468,0.44,0.58,-0.45,0.85
30.478,0.16,0.27,-0.35,0.47
30.488,-0.02,0.15,-0.08,0.17
30.498,-0.31,0.12,0.20,0.38
30.508,-0.72,0.04,0.18,0.75
30.518,-1.14,0.21,-0.03,1.16
30.528,-1.48,0.41,-0.21,1.55
30.538,-1.68,0.58,-0.50,1.84
30.549,-1.82,0.77,-0.67,2.09
30.558,-1.66,0.86,-0.49,1.93
30.569,-1.13,0.72,0.14,1.35
30.579,-0.40,0.47,1.03,1.20
30.589,-0.05,0.12,1.59,1.59
30.599,0.33,-0.29,2.16,2.20
30.609,0.39,-0.71,2.43,2.56
30.619,0.01,-0.84,2.35,2.49
30.629,-0.61,-0.90,1.77,2.08
30.639,-1.19,-0.95,1.01,1.83
30.649,-1.49,-0.89,0.46,1.79
30.659,-1.48,-0.77,0.31,1.70
30.670,-1.41,-0.65,0.27,1.57
30.679,-1.31,-0.60,0.20,1.45
30.690,-1.06,-0.53,0.31,1.23
30.700,-0.72,-0.40,0.55,0.99
30.710,-0.34,-0.29,0.81,0.93
30.720,-0.08,-0.19,1.12,1.14
30.730,0.11,-0.01,1.34,1.35
30.740,0.30,0.16,1.57,1.61
30.750,0.47,0.33,1.75,1.84
30.760,0.69,0.52,1.84,2.03
30.770,0.77,0.65,1.91,2.16
30.780,0.85,0.68,1.85,2.15
30.790,0.91,0.66,1.77,2.09
30.800,0.95,0.55,1.70,2.02
30.811,0.88,0.38,1.67,1.93
30.820,0.80,0.15,1.67,1.86
30.831,0.65,-0.05,1.61,1.74
30.841,0.42,-0.25,1.39,1.47
30.851,0.18,-0.46,1.02,1.13
30.861,-0.14,-0.69,0.56,0.90
30.871,-0.54,-0.87,0.17,1.04
30.881,-0.86,-1.07,-0.13,1.38
30.891,-1.12,-1.18,-0.38,1.67
30.901,-1.53,-1.02,-0.66,1.95
30.911,-1.80,-0.74,-0.87,2.13
30.921,-1.80,-0.31,-0.98,2.07
30.932,-1.75,0.29,-1.01,2.04
30.941,-1.75,0.84,-0.98,2.17
30.952,-1.71,1.33,-0.85,2.33
30.962,-1.54,1.79,-0.68,2.46
30.972,-1.32,2.30,-0.46,2.69
30.982,-1.16,2.71,-0.17,2.95
30.992,-0.97,2.90,0.26,3.07
31.002,-0.64,2.84,1.03,3.09
31.012,-0.45,2.59,1.94,3.27
31.022,-0.42,2.23,2.73,3.55
31.032,-0.38,1.81,3.33,3.81
31.042,-0.44,1.35,3.57,3.84
31.052,-0.61,0.92,3.64,3.80
31.062,-0.90,0.52,3.35,3.50
31.073,-1.13,0.28,2.81,3.04
31.083,-1.12,0.15,2.36,2.62
31.093,-0.85,0.09,2.13,2.29
31.103,-0.52,0.10,1.95,2.02
31.113,-0.15,-0.06,1.71,1.72
31.123,0.10,-0.27,1.48,1.51
31.133,0.19,-0.43,1.23,1.32
31.143,0.23,-0.58,1.01,1.19
31.153,0.25,-0.76,0.80,1.13
31.163,0.16,-0.97,0.66,1.18
31.174,0.08,-1.05,0.62,1.22
31.183,0.07,-1.08,0.60,1.24
31.193,0.09,-1.13,0.64,1.30
31.204,0.14,-1.16,0.83,1.44
31.214,0.39,-1.19,1.14,1.69
31.224,0.57,-1.23,1.41,1.96
31.234,0.52,-1.30,1.47,2.03
31.244,0.33,-1.42,1.38,2.01
31.254,0.05,-1.44,1.28,1.93
31.264,-0.22,-1.33,1.18,1.79
31.274,-0.38,-1.08,1.00,1.52
31.284,-0.31,-0.77,0.97,1.28
31.294,-0.04,-0.40,1.18,1.25
31.304,0.35,-0.07,1.33,1.38
31.315,0.59,0.06,1.35,1.47
31.324,0.79,0.01,1.31,1.53
31.335,1.05,-0.06,1.27,1.65
31.345,1.28,-0.15,1.16,1.73
31.355,1.40,-0.28,0.92,1.70
31.365,1.37,-0.37,0.52,1.52
31.375,1.15,-0.54,0.11,1.28
31.385,0.92,-0.75,-0.13,1.20
31.395,0.74,-0.96,-0.13,1.21
31.405,0.76,-1.18,-0.00,1.41
31.415,0.85,-1.35,0.02,1.59
31.425,0.89,-1.44,0.13,1.70
31.435,1.11,-1.56,-0.02,1.92
31.445,1.26,-1.62,-0.28,2.07
31.456,1.30,-1.59,-0.58,2.14
31.466,1.49,-1.54,-0.82,2.29
31.476,1.53,-1.61,-1.03,2.45
31.486,1.36,-1.69,-1.31,2.54
31.496,1.02,-1.70,-1.50,2.49
31.506,0.59,-1.53,-1.58,2.28
31.516,0.28,-1.28,-1.61,2.08
31.526,0.20,-0.80,-1.43,1.65
31.536,0.15,-0.23,-1.26,1.29
31.546,0.29,0.16,-1.10,1.15
31.556,0.47,0.54,-0.78,1.06
31.566,0.53,0.88,-0.55,1.17
31.576,0.48,1.12,-0.56,1.34
31.587,0.42,1.32,-0.70,1.55
31.597,0.44,1.45,-0.68,1.66
31.607,0.57,1.59,-0.38,1.73
31.617,0.74,1.65,-0.00,1.81
31.627,0.95,1.68,0.27,1.95
31.637,1.11,1.64,0.31,2.00
31.647,1.11,1.53,0.01,1.89
31.657,0.91,1.46,-0.49,1.79
31.667,0.54,1.41,-0.98,1.80
31.677,0.30,1.31,-1.34,1.90
31.687,0.14,1.29,-1.44,1.94
31.698,-0.02,1.29,-1.33,1.85
31.707,-0.13,1.25,-1.25,1.77
31.718,-0.37,1.16,-1.24,1.73
31.728,-0.56,1.03,-1.17,1.65
31.738,-0.56,0.95,-0.99,1.49
31.748,-0.54,0.81,-0.79,1.25
31.758,-0.55,0.56,-0.58,0.97
31.768,-0.50,0.34,-0.39,0.72
31.778,-0.48,0.11,-0.25,0.55
31.788,-0.51,0.01,-0.23,0.56
31.798,-0.38,0.03,-0.18,0.42
31.808,-0.21,0.00,-0.15,0.26
31.818,-0.03,0.11,0.00,0.11
31.828,0.20,0.14,0.22,0.33
31.839,0.30,0.09,0.28,0.42
31.848,0.35,0.00,0.18,0.39
31.859,0.31,-0.13,0.06,0.34
31.869,0.36,-0.23,0.00,0.43
31.879,0.60,-0.09,0.01,0.61
31.889,0.83,0.04,-0.06,0.83
31.899,1.22,0.07,-0.21,1.24
31.909,1.47,0.09,-0.34,1.51
31.919,1.53,-0.05,-0.61,1.64
31.929,1.57,-0.27,-0.91,1.84
31.939,1.48,-0.49,-1.05,1.88
31.949,1.38,-0.75,-1.10,1.92
31.960,1.36,-0.96,-1.13,2.01
31.970,1.26,-1.05,-0.99,1.91
31.980,1.22,-1.10,-0.95,1.90
31.990,1.18,-1.13,-0.80,1.82
32.000,1.22,-1.07,-0.81,1.81
32.010,1.21,-0.81,-0.91,1.72
32.020,1.23,-0.46,-1.10,1.71
32.030,1.31,-0.21,-1.26,1.82
32.040,1.39,0.00,-1.37,1.95
32.050,1.27,0.04,-1.43,1.92
32.060,1.08,-0.01,-1.48,1.83
32.070,0.85,-0.01,-1.45,1.68
32.080,0.65,0.02,-1.32,1.48
32.090,0.54,0.08,-1.24,1.36
32.101,0.51,0.11,-1.14,1.25
32.111,0.42,0.00,-0.99,1.07
32.121,0.41,-0.00,-0.82,0.91
32.131,0.48,0.06,-0.62,0.79
32.141,0.56,0.09,-0.39,0.69
32.151,0.61,0.05,-0.10,0.62
32.161,0.70,-0.01,0.17,0.72
32.171,0.78,-0.06,0.36,0.86
32.181,0.89,-0.13,0.39,0.98
32.191,0.87,-0.22,0.29,0.94
32.202,0.87,-0.30,0.13,0.93
32.211,0.86,-0.44,-0.13,0.97
32.222,0.75,-0.67,-0.47,1.11
32.232,0.53,-0.91,-0.82,1.34
32.242,0.29,-1.12,-1.10,1.60
32.252,0.12,-1.25,-1.24,1.76
32.262,-0.01,-1.25,-1.28,1.79
32.272,0.04,-1.14,-1.15,1.62
32.282,0.11,-0.95,-1.01,1.39
32.292,0.12,-0.87,-0.94,1.28
32.302,0.14,-0.80,-1.03,1.32
32.312,0.18,-0.69,-1.05,1.27
32.322,0.41,-0.56,-0.97,1.19
32.332,0.60,-0.43,-0.74,1.05
32.343,0.75,-0.36,-0.44,0.94
32.353,0.87,-0.40,-0.17,0.97
32.363,0.96,-0.45,0.05,1.06
32.373,0.94,-0.52,0.16,1.09
32.383,0.99,-0.56,0.28,1.18
32.393,1.04,-0.59,0.37,1.25
32.403,1.03,-0.64,0.31,1.25
32.413,1.03,-0.68,0.23,1.26
32.423,0.88,-0.79,0.08,1.19
32.433,0.64,-0.98,-0.22,1.19
32.443,0.36,-1.20,-0.56,1.37
32.453,-0.01,-1.42,-0.75,1.60
32.463,-0.26,-1.65,-0.74,1.82
32.473,-0.48,-1.89,-0.62,2.04
32.484,-0.65,-1.93,-0.55,2.11
32.494,-0.78,-1.82,-0.58,2.06
32.504,-0.89,-1.62,-0.86,2.04
32.514,-1.10,-1.24,-1.33,2.13
32.524,-1.26,-0.66,-1.90,2.37
32.534,-1.43,-0.09,-2.40,2.80
32.544,-1.61,0.39,-2.69,3.16
32.554,-1.49,0.72,-2.58,3.06
32.564,-1.18,0.92,-1.90,2.42
32.574,-0.78,0.98,-0.76,1.47
32.585,-0.52,0.97,0.24,1.13
32.594,-0.38,0.85,1.00,1.36
32.605,-0.24,0.56,1.74,1.85
32.614,-0.25,0.26,2.24,2.27
32.625,-0.26,0.09,2.82,2.83
32.637,-0.28,-0.10,3.12,3.14
32.645,-0.32,-0.17,3.24,3.26
32.655,-0.41,-0.06,3.13,3.16
32.665,-0.44,0.14,2.89,2.93
32.675,-0.45,0.30,2.77,2.82
32.685,-0.54,0.40,2.61,2.69
32.695,-0.66,0.42,2.34,2.47
32.705,-0.69,0.49,2.19,2.34
32.715,-0.52,0.71,2.10,2.28
32.726,-0.34,0.95,1.95,2.20
32.736,-0.11,1.12,1.76,2.09
32.746,0.02,1.21,1.46,1.89
32.756,-0.05,1.25,1.05,1.64
32.766,-0.33,1.10,0.63,1.31
32.776,-0.66,0.85,0.30,1.12
32.786,-0.85,0.67,0.28,1.12
32.796,-0.82,0.52,0.52,1.11
32.806,-0.62,0.43,0.82,1.11
32.816,-0.43,0.41,0.94,1.11
32.826,-0.39,0.34,1.04,1.16
32.836,-0.36,0.30,1.09,1.19
32.846,-0.33,0.29,0.99,1.09
32.856,-0.41,0.25,0.84,0.97
32.867,-0.58,0.19,0.56,0.83
32.877,-0.77,0.17,0.29,0.84
32.887,-0.85,0.10,0.16,0.87
32.897,-1.00,0.06,0.06,1.00
32.907,-1.26,-0.02,-0.17,1.27
32.917,-1.50,0.01,-0.49,1.58
32.927,-1.77,0.23,-0.90,2.00
32.937,-1.97,0.62,-1.20,2.38
32.947,-1.89,1.06,-1.24,2.50
32.957,-1.51,1.58,-1.10,2.45
32.967,-1.19,2.08,-1.02,2.60
32.977,-1.10,2.29,-1.15,2.79
32.987,-1.19,2.26,-1.52,2.97
32.997,-1.30,2.22,-1.77,3.12
33.008,-1.57,2.21,-1.91,3.32
33.020,-1.91,2.26,-1.85,3.49
33.028,-2.15,2.44,-1.59,3.62
33.038,-2.15,2.51,-1.13,3.49
33.048,-1.85,2.56,-0.49,3.19
33.058,-1.45,2.44,0.19,2.84
33.068,-1.08,2.14,0.73,2.51
33.078,-0.88,1.72,1.01,2.18
33.088,-0.90,1.21,1.09,1.87
33.098,-1.12,0.75,1.10,1.75
33.109,-1.41,0.32,0.80,1.65
33.118,-1.71,-0.11,0.41,1.77
33.129,-1.79,-0.44,0.13,1.85
33.139,-1.90,-0.54,-0.34,2.01
33.149,-1.91,-0.32,-0.70,2.06
33.159,-1.86,-0.13,-0.76,2.01
33.169,-1.48,0.07,-0.43,1.55
33.179,-1.04,0.21,0.42,1.14
33.189,-0.45,0.07,1.28,1.36
33.199,0.23,-0.20,2.00,2.03
33.209,0.61,-0.48,2.57,2.69
33.219,0.95,-0.77,2.87,3.12
33.229,1.14,-0.86,2.91,3.24
33.239,1.01,-0.78,2.68,2.97
33.250,0.79,-0.62,2.36,2.57
33.259,0.58,-0.53,2.09,2.23
33.270,0.49,-0.52,2.12,2.24
33.280,0.38,-0.58,2.38,2.48
33.290,0.10,-0.94,2.40,2.58
33.300,0.09,-0.65,2.26,2.35
33.310,-0.05,-0.84,1.87,2.05
33.320,-0.15,-1.23,1.72,2.12
33.330,-0.24,-1.11,1.61,1.97
33.340,-0.36,-1.01,1.29,1.67
33.350,-0.35,-1.03,0.79,1.35
33.360,-0.34,-1.01,0.45,1.16
33.371,-0.24,-0.94,0.24,1.00
33.380,-0.11,-0.83,0.02,0.83
33.391,-0.01,-0.83,-0.18,0.85
33.401,0.12,-1.11,-0.22,1.13
33.411,0.10,-1.50,-0.07,1.51
33.421,0.19,-1.99,0.18,2.00
33.431,0.38,-2.46,0.36,2.52
33.441,0.29,-2.86,0.74,2.96
33.451,0.13,-2.98,0.88,3.11
33.461,0.12,-2.75,0.45,2.79
33.471,0.33,-2.43,-0.33,2.47
33.481,0.57,-2.21,-1.06,2.52
33.491,0.68,-1.96,-1.48,2.55
33.501,0.67,-1.88,-1.46,2.47
33.512,0.76,-1.95,-1.08,2.36
33.522,1.08,-2.02,-0.51,2.35
33.532,1.48,-2.16,0.66,2.70
33.542,1.76,-2.11,1.53,3.15
33.552,1.25,-2.07,1.48,2.83
33.562,1.20,-2.02,2.04,3.12
33.572,1.30,-1.71,2.53,3.32
33.582,1.16,-1.37,2.51,3.09
33.592,1.33,-0.88,2.58,3.03
33.602,1.60,-0.19,2.63,3.08
33.612,1.67,0.33,2.60,3.11
33.622,1.61,0.61,2.69,3.20
33.633,1.61,0.79,2.67,3.22
33.643,1.90,0.90,2.81,3.51
33.653,2.02,1.11,3.08,3.84
33.663,1.70,1.13,3.39,3.95
33.673,1.13,1.06,3.61,3.93
33.683,0.71,1.04,3.57,3.78
33.693,0.63,1.00,3.11,3.33
33.703,0.42,1.11,2.40,2.67
33.713,0.26,1.25,1.49,1.96
33.723,0.09,1.36,0.45,1.44
33.733,0.17,1.63,-0.60,1.74
33.743,0.30,1.81,-1.57,2.41
33.754,0.36,1.89,-2.50,3.16
33.763,0.44,2.01,-3.24,3.84
33.774,0.43,2.01,-3.87,4.38
33.784,0.30,1.82,-4.36,4.73
33.794,0.04,1.50,-4.67,4.90
33.804,-0.07,1.10,-4.85,4.97
33.814,-0.23,0.57,-4.63,4.67
33.824,-0.32,0.04,-4.04,4.06
33.834,0.00,-0.22,-3.36,3.36
33.844,0.49,-0.28,-2.94,2.99
33.854,0.96,-0.21,-2.74,2.91
33.864,1.42,-0.05,-2.57,2.94
33.875,2.11,0.18,-2.37,3.18
33.885,2.64,0.49,-2.16,3.45
33.895,2.82,0.66,-2.20,3.64
33.905,2.95,0.79,-2.33,3.84
33.915,3.53,1.06,-2.29,4.34
33.925,4.47,1.59,-1.90,5.11
33.935,5.12,2.13,-1.17,5.67
33.945,5.40,2.34,-0.54,5.91
33.955,5.30,2.33,-0.16,5.79
33.965,4.83,2.24,-0.32,5.33
33.975,4.02,1.93,-1.01,4.57
33.985,3.00,1.60,-1.98,3.93
33.995,2.03,1.22,-2.61,3.52
34.005,1.50,0.82,-2.94,3.40
34.016,1.20,0.55,-3.14,3.40
34.026,1.05,0.35,-3.13,3.32
34.036,0.97,0.18,-2.96,3.12
34.046,0.83,-0.02,-2.70,2.82
34.056,0.58,-0.24,-2.45,2.53
34.066,0.29,-0.56,-2.31,2.39
34.076,-0.15,-0.79,-2.28,2.42
34.086,-0.65,-0.90,-2.26,2.52
34.096,-1.01,-0.77,-2.16,2.50
34.106,-1.27,-0.82,-2.06,2.56
34.116,-1.60,-0.88,-1.94,2.66
34.126,-1.90,-0.79,-1.84,2.76
34.137,-1.98,-0.75,-1.81,2.79
34.146,-1.74,-0.66,-1.68,2.51
34.157,-1.49,-0.59,-1.37,2.11
34.167,-1.33,-0.67,-1.07,1.83
34.177,-1.23,-0.91,-0.82,1.73
34.187,-1.11,-1.20,-0.52,1.71
34.197,-1.14,-1.44,-0.25,1.86
34.207,-1.18,-1.74,-0.08,2.11
34.217,-1.21,-1.94,-0.03,2.29
34.227,-1.15,-1.97,0.12,2.29
34.237,-0.84,-1.82,0.21,2.02
34.247,-0.47,-1.36,0.29,1.47
34.257,-0.08,-0.94,0.49,1.06
34.267,0.55,-0.61,0.82,1.16
34.278,1.25,-0.25,1.34,1.85
34.288,1.90,0.16,1.93,2.72
34.298,2.64,0.33,2.23,3.48
34.308,3.18,0.29,2.30,3.93
34.318,3.37,0.10,2.22,4.03
34.328,3.28,-0.35,2.05,3.88
34.338,2.90,-0.94,1.80,3.55
34.348,2.37,-1.70,1.45,3.26
34.358,1.69,-2.61,1.10,3.30
34.368,1.03,-3.43,0.86,3.68
34.378,0.51,-4.05,0.74,4.15
34.388,0.22,-4.50,0.49,4.54
34.399,0.06,-4.67,0.31,4.68
34.409,-0.03,-4.54,0.31,4.55
34.419,-0.07,-4.25,0.25,4.26
34.429,-0.34,-3.97,-0.14,3.99
34.439,-0.69,-3.60,-0.67,3.73
34.449,-0.97,-3.16,-1.07,3.47
34.459,-1.46,-2.75,-1.27,3.36
34.469,-2.01,-2.41,-1.29,3.39
34.479,-2.24,-1.95,-1.05,3.15
34.489,-2.12,-1.56,-0.68,2.71
34.499,-1.72,-0.97,0.01,1.97
34.509,-1.08,-0.39,1.05,1.55
34.520,-0.18,0.11,2.06,2.07
34.529,0.72,0.66,3.02,3.17
34.540,1.49,1.03,3.87,4.27
34.550,2.06,1.16,4.41,5.00
34.560,2.14,1.14,4.46,5.08
34.570,1.64,1.08,4.11,4.55
34.580,1.15,1.04,3.45,3.79
34.590,0.71,1.17,2.72,3.04
34.600,0.42,1.43,2.14,2.61
34.610,0.28,1.64,1.67,2.35
34.620,0.32,1.88,1.41,2.37
34.630,0.34,2.14,1.25,2.50
34.641,0.17,2.20,1.17,2.49
34.650,0.06,2.12,1.13,2.40
34.661,0.07,2.00,1.27,2.37
34.671,-0.04,1.91,1.46,2.41
34.681,-0.29,1.75,1.64,2.41
34.691,-0.53,1.58,1.81,2.46
34.701,-0.87,1.48,1.97,2.61
34.711,-1.23,1.44,2.04,2.78
34.721,-1.60,1.43,2.13,3.02
34.731,-1.95,1.38,2.28,3.30
34.741,-2.29,1.37,2.44,3.61
34.751,-2.44,1.41,2.73,3.92
34.761,-2.51,1.49,3.09,4.25
34.771,-2.43,1.54,3.36,4.42
34.782,-2.12,1.65,3.37,4.31
34.792,-2.09,1.74,3.26,4.25
34.802,-2.04,1.74,3.05,4.06
34.812,-2.04,1.66,2.88,3.90
34.822,-2.06,1.57,2.69,3.74
34.832,-2.15,1.55,2.58,3.70
34.842,-2.28,1.47,2.52,3.70
34.852,-2.29,1.30,2.52,3.64
34.862,-2.12,1.22,2.63,3.59
34.872,-1.93,1.17,2.73,3.54
34.882,-1.73,1.04,2.67,3.35
34.892,-1.77,0.98,2.44,3.17
34.902,-1.91,1.06,2.12,3.05
34.912,-2.15,1.18,1.66,2.96
34.923,-2.42,1.45,1.18,3.05
34.933,-2.51,1.85,0.81,3.22
34.943,-2.29,2.35,0.49,3.31
34.953,-1.98,3.06,0.44,3.67
34.963,-1.52,3.57,0.61,3.93
34.973,-1.01,3.91,1.02,4.17
34.983,-0.38,4.09,1.60,4.41
34.993,0.23,4.06,2.13,4.59
35.003,1.11,4.00,2.54,4.87
35.013,2.02,3.80,2.78,5.12
35.023,2.59,3.39,3.00,5.21
35.033,2.93,2.93,3.17,5.22
35.044,3.04,2.43,3.19,5.03
35.054,3.04,1.85,3.08,4.71
35.064,3.00,1.15,2.87,4.31
35.074,2.80,0.42,2.62,3.85
35.084,2.46,-0.26,2.33,3.40
35.094,2.00,-0.92,1.95,2.94
35.104,1.67,-1.50,1.51,2.70
35.114,1.48,-1.95,1.13,2.70
35.124,1.25,-2.42,0.76,2.83
35.134,0.92,-2.88,0.44,3.05
35.144,0.60,-3.29,0.11,3.35
35.154,0.24,-3.68,-0.27,3.70
35.165,-0.24,-3.89,-0.58,3.94
35.175,-0.59,-3.96,-0.90,4.10
35.185,-0.60,-3.92,-1.20,4.14
35.195,-0.57,-3.58,-1.38,3.88
35.205,-0.49,-2.96,-1.49,3.35
35.215,-0.41,-2.24,-1.41,2.68
35.225,-0.06,-1.58,-0.98,1.86
35.235,0.51,-1.03,-0.21,1.17
35.245,1.01,-0.60,0.92,1.50
35.255,1.64,-0.52,2.07,2.69
35.265,2.23,-0.69,3.04,3.84
35.275,2.90,-0.63,3.73,4.77
35.286,3.44,-0.35,4.30,5.51
35.295,3.91,-0.67,4.53,6.02
35.306,4.27,-0.92,4.31,6.13
35.316,4.05,-1.21,3.80,5.69
35.326,3.70,-1.49,3.04,5.02
35.336,3.46,-1.70,2.37,4.53
35.346,3.26,-1.88,1.88,4.20
35.356,3.16,-1.91,1.46,3.97
35.366,3.19,-1.86,1.08,3.84
35.376,3.15,-1.81,0.82,3.73
35.386,2.81,-1.77,0.57,3.36
35.396,2.28,-1.71,0.37,2.87
35.406,1.90,-1.63,0.32,2.52
35.416,1.68,-1.46,0.40,2.26
35.427,1.56,-1.24,0.65,2.09
35.437,1.23,-1.08,0.99,1.91
35.447,0.96,-0.93,1.24,1.83
35.457,0.85,-0.67,1.34,1.72
35.467,0.63,-0.37,1.40,1.57
35.477,0.30,-0.28,1.28,1.34
35.487,-0.01,-0.18,1.03,1.05
35.497,-0.38,0.01,0.64,0.75
35.507,-0.76,0.28,0.14,0.82
35.517,-0.91,0.62,-0.45,1.19
35.527,-0.92,0.89,-1.01,1.63
35.537,-0.95,1.02,-1.37,1.95
35.547,-1.04,1.09,-1.68,2.26
35.557,-1.02,1.06,-1.86,2.37
35.568,-0.99,0.97,-1.94,2.39
35.578,-0.97,0.87,-2.01,2.39
35.588,-0.93,0.88,-1.96,2.34
35.598,-1.01,0.69,-1.93,2.29
35.608,-0.97,0.22,-1.53,1.82
35.618,-0.81,0.26,-1.01,1.32
35.628,-0.59,0.20,-0.67,0.91
35.638,-0.31,0.02,-0.53,0.62
35.648,-0.02,-0.09,-0.50,0.51
35.658,0.35,-0.08,-0.77,0.85
35.669,0.52,-0.19,-1.10,1.23
35.678,0.60,-0.35,-1.46,1.62
35.689,0.66,-0.30,-1.78,1.92
35.699,0.75,0.03,-2.11,2.24
35.709,1.08,0.40,-2.44,2.70
35.719,1.61,0.75,-2.63,3.17
35.729,2.16,1.14,-2.81,3.73
35.739,2.49,1.47,-2.78,4.01
35.749,2.67,1.60,-2.82,4.20
35.759,2.72,1.67,-2.96,4.35
35.769,2.70,1.67,-3.31,4.58
35.779,2.43,1.50,-3.75,4.71
35.789,2.14,1.47,-4.13,4.88
35.800,1.84,1.46,-4.48,5.06
35.810,1.66,1.26,-4.69,5.13
35.819,1.71,1.05,-4.53,4.96
35.830,2.11,0.81,-4.05,4.64
35.840,2.79,0.45,-3.34,4.38
35.850,3.60,-0.00,-2.60,4.44
35.860,4.07,-0.52,-2.12,4.62
35.870,4.14,-1.08,-1.92,4.69
35.880,3.75,-1.52,-1.91,4.47
35.890,3.01,-1.73,-1.98,4.00
35.900,2.21,-1.82,-2.02,3.50
35.910,1.76,-1.69,-2.03,3.18
35.920,1.34,-1.42,-1.95,2.76
35.931,1.06,-1.12,-1.92,2.47
35.940,0.88,-0.83,-1.95,2.29
35.951,0.71,-0.50,-2.06,2.23
35.961,0.46,-0.23,-2.27,2.33
35.971,0.19,0.02,-2.44,2.45
35.981,0.06,0.25,-2.55,2.57
35.991,0.10,0.44,-2.48,2.52
36.001,0.42,0.79,-2.31,2.47
36.011,0.80,1.25,-2.00,2.49
36.021,1.05,1.41,-1.62,2.39
36.031,1.39,1.38,-1.34,2.37
36.041,1.49,1.36,-1.20,2.35
36.052,1.43,1.20,-1.22,2.23
36.061,1.35,0.93,-1.35,2.12
36.072,1.17,0.62,-1.38,1.91
36.082,0.88,0.27,-1.21,1.52
36.092,0.63,-0.14,-0.99,1.18
36.102,0.41,-0.57,-0.64,0.95
36.112,0.33,-0.93,-0.36,1.05
36.122,0.14,-1.19,-0.23,1.22
36.132,-0.15,-1.46,-0.14,1.48
36.142,-0.26,-1.69,-0.20,1.73
36.152,-0.28,-1.75,-0.25,1.79
36.162,-0.23,-1.70,-0.30,1.74
36.172,-0.24,-1.61,-0.39,1.67
36.182,-0.18,-1.40,-0.49,1.50
36.193,-0.05,-1.16,-0.58,1.30
36.203,0.25,-1.06,-0.49,1.19
36.213,0.68,-0.86,-0.15,1.11
36.223,1.03,-0.59,0.35,1.24
36.233,1.23,-0.51,1.08,1.72
36.243,1.54,-0.62,1.90,2.53
36.253,1.93,-0.90,2.69,3.43
36.263,2.19,-1.32,3.50,4.33
36.273,2.53,-1.65,4.37,5.32
36.283,2.88,-1.75,4.89,5.94
36.293,3.09,-1.79,4.89,6.06
36.303,3.41,-1.81,4.31,5.79
36.313,3.40,-1.67,3.39,5.08
36.323,2.74,-1.57,2.34,3.93
36.334,2.04,-1.67,1.35,2.96
36.344,1.34,-1.90,0.61,2.40
36.354,0.70,-2.15,0.44,2.31
36.364,0.53,-2.51,0.70,2.65
36.374,0.49,-2.86,1.16,3.12
36.384,0.49,-2.85,1.92,3.47
36.394,0.62,-2.07,2.39,3.22
36.404,0.26,-1.99,2.00,2.83
36.414,-0.03,-1.56,1.44,2.13
36.424,-0.37,-0.62,0.89,1.15
36.435,-0.80,0.19,0.31,0.88
36.444,-1.07,0.79,-0.30,1.36
36.455,-1.18,1.27,-0.58,1.83
36.465,-1.18,1.64,-0.47,2.08
36.475,-1.04,1.94,-0.18,2.21
36.485,-0.77,2.02,0.33,2.18
36.495,-0.64,1.98,0.87,2.26
36.505,-0.56,1.92,1.42,2.46
36.515,-0.39,1.89,1.84,2.67
36.525,-0.33,1.91,1.92,2.73
36.535,-0.20,1.95,1.95,2.76
36.545,-0.03,1.90,2.01,2.77
36.555,0.08,1.74,1.97,2.63
36.565,0.06,1.47,1.90,2.40
36.575,-0.06,1.20,1.90,2.25
36.586,-0.24,0.85,1.80,2.00
36.596,-0.22,0.56,1.65,1.75
36.606,-0.29,0.39,1.43,1.51
36.616,-0.45,0.33,1.26,1.38
36.626,-0.68,0.39,1.03,1.29
36.636,-0.95,0.36,0.76,1.27
36.646,-0.94,0.22,0.74,1.22
36.656,-0.89,0.08,0.82,1.21
36.666,-0.74,0.13,0.87,1.15
36.676,-0.49,0.25,0.94,1.08
36.686,-0.21,0.31,1.04,1.11
36.696,-0.15,0.45,1.17,1.27
36.706,-0.27,0.49,1.43,1.54
36.717,-0.41,0.31,1.79,1.86
36.727,-0.52,0.14,2.19,2.26
36.737,-0.68,-0.00,2.64,2.73
36.747,-0.95,-0.29,2.92,3.09
36.757,-1.31,-0.66,2.94,3.29
36.767,-1.58,-0.91,2.69,3.25
36.777,-1.81,-0.93,2.17,2.98
36.787,-2.15,-0.88,1.69,2.87
36.797,-2.43,-0.91,1.27,2.89
36.807,-2.63,-0.98,1.09,3.01
36.817,-2.76,-0.96,1.07,3.12
36.827,-2.80,-0.89,1.12,3.15
36.838,-2.79,-0.78,1.22,3.14
36.847,-2.54,-0.53,1.39,2.95
36.858,-2.43,0.05,1.66,2.94
36.868,-2.50,0.75,1.90,3.23
36.878,-2.54,1.54,2.01,3.58
36.888,-2.34,2.29,1.96,3.81
36.898,-2.15,3.02,1.94,4.19
36.908,-1.95,3.64,1.85,4.53
36.918,-1.64,3.98,1.59,4.59
36.928,-1.35,4.13,1.46,4.58
36.938,-1.04,4.06,1.59,4.48
36.948,-0.74,3.72,1.83,4.21
36.959,-0.62,3.33,2.12,4.00
36.969,-0.75,2.99,2.49,3.97
36.979,-0.75,2.76,2.75,3.97
36.989,-0.85,2.61,2.94,4.02
36.999,-0.95,2.43,2.99,3.97
37.009,-0.83,2.29,2.81,3.72
37.019,-0.54,2.31,2.56,3.50
37.029,-0.19,2.39,2.21,3.27
37.039,-0.07,2.16,1.70,2.75
37.049,-0.02,1.64,1.17,2.02
37.059,-0.04,1.11,0.82,1.38
37.069,-0.12,0.50,0.49,0.71
37.079,-0.18,-0.03,0.12,0.22
37.089,-0.14,-0.35,-0.19,0.42
37.100,-0.07,-0.51,-0.50,0.72
37.110,0.05,-0.63,-0.78,1.00
37.120,0.11,-0.73,-1.13,1.35
37.130,-0.07,-0.84,-1.49,1.72
37.140,-0.21,-1.03,-1.83,2.11
37.150,-0.26,-1.32,-1.95,2.36
37.160,-0.26,-1.57,-1.90,2.48
37.170,-0.14,-1.72,-1.62,2.37
37.180,0.01,-1.77,-0.97,2.02
37.190,0.12,-1.75,-0.37,1.80
37.200,0.29,-1.70,-0.04,1.72
37.210,0.44,-1.72,0.11,1.78
37.221,0.65,-1.81,0.31,1.95
37.230,0.89,-1.82,0.49,2.08
37.241,1.24,-1.58,0.52,2.07
37.251,1.48,-1.41,0.28,2.06
37.261,1.54,-1.52,-0.16,2.17
37.271,1.61,-1.66,-0.54,2.37
37.281,1.70,-1.83,-0.66,2.58
37.291,1.86,-2.10,-0.65,2.88
37.301,1.94,-2.28,-0.54,3.04
37.311,2.11,-2.39,-0.41,3.22
37.321,2.51,-2.42,-0.20,3.49
37.331,2.79,-2.15,0.23,3.53
37.341,3.04,-1.76,0.68,3.58
37.351,3.42,-1.41,1.00,3.83
37.362,3.83,-0.96,1.16,4.12
37.372,4.26,-0.33,0.88,4.36
37.382,4.67,0.29,0.17,4.68
37.392,4.89,0.62,-0.60,4.97
37.402,4.97,0.77,-1.29,5.19
37.412,4.90,0.93,-1.83,5.31
37.422,4.62,0.84,-2.17,5.17
37.432,4.18,0.55,-2.19,4.75
37.442,3.80,0.46,-1.82,4.23
37.452,3.68,0.66,-0.93,3.85
37.462,3.87,0.96,0.19,3.99
37.472,4.22,1.26,0.89,4.49
37.483,4.41,1.56,1.15,4.82
37.493,4.24,1.75,1.07,4.71
37.503,3.75,1.63,0.51,4.12
37.513,3.05,1.42,-0.32,3.38
37.523,2.58,1.23,-0.91,3.00
37.533,2.13,1.12,-1.28,2.73
37.543,1.48,1.14,-1.34,2.30
37.553,1.07,1.04,-1.13,1.87
37.563,0.52,0.75,-0.70,1.15
37.573,-0.18,0.52,-0.31,0.63
37.583,-0.75,0.40,0.02,0.85
37.593,-1.18,0.46,0.32,1.31
37.604,-1.62,0.48,0.25,1.70
37.613,-1.91,0.53,-0.11,1.98
37.624,-2.20,0.75,-0.61,2.40
37.634,-2.44,1.08,-1.33,2.98
37.644,-2.67,1.46,-1.93,3.60
37.654,-2.90,1.76,-2.19,4.04
37.664,-2.98,1.87,-2.04,4.07
37.674,-2.99,1.87,-1.57,3.86
37.684,-2.95,1.73,-1.01,3.57
37.694,-2.95,1.40,-0.63,3.32
37.704,-2.98,1.05,-0.49,3.19
37.714,-2.94,0.76,-0.52,3.08
37.724,-2.79,0.52,-0.69,2.92
37.735,-2.58,0.34,-0.89,2.75
37.745,-2.61,0.15,-1.18,2.87
37.755,-2.64,-0.02,-1.49,3.03
37.765,-2.57,-0.16,-1.59,3.03
37.775,-2.37,-0.25,-1.45,2.79
37.785,-1.87,-0.27,-1.05,2.16
37.795,-0.96,-0.36,-0.25,1.05
37.805,0.03,-0.50,0.58,0.76
37.815,0.68,-0.76,0.95,1.40
37.825,1.02,-1.04,1.02,1.78
37.835,1.21,-1.18,0.85,1.89
37.845,1.45,-1.15,0.41,1.89
37.855,1.71,-0.78,-0.16,1.88
37.866,1.94,-0.26,-0.60,2.05
37.876,2.56,0.09,-0.80,2.68
37.886,3.52,0.33,-0.73,3.61
37.896,4.52,0.42,-0.28,4.55
37.906,5.29,0.34,0.01,5.30
37.916,5.88,0.11,-0.17,5.88
37.926,6.22,-0.26,-0.69,6.26
37.936,6.04,-0.58,-1.21,6.18
37.946,5.67,-0.88,-1.40,5.90
37.956,5.45,-0.99,-1.33,5.69
37.966,5.21,-0.84,-0.91,5.35
37.976,5.09,-0.73,-0.22,5.15
37.987,4.98,-0.71,0.33,5.04
37.996,4.84,-0.61,0.82,4.95
38.007,4.44,-0.49,1.14,4.61
38.017,3.91,-0.39,1.31,4.14
38.027,3.50,-0.39,1.49,3.82
38.037,3.09,-0.45,1.79,3.60
38.047,2.76,-0.45,2.17,3.54
38.057,2.30,-0.55,2.43,3.39
38.067,1.80,-0.82,2.44,3.14
38.077,1.34,-1.28,2.15,2.84
38.087,1.09,-1.65,1.65,2.58
38.097,0.85,-1.66,0.99,2.11
38.107,0.83,-1.28,0.31,1.56
38.117,0.74,-0.75,-0.30,1.09
38.128,0.54,-0.50,-0.99,1.23
38.138,0.49,-0.43,-1.43,1.57
38.148,0.47,-0.45,-1.55,1.68
38.158,0.34,-0.56,-1.34,1.49
38.168,0.24,-0.78,-0.85,1.17
38.178,0.04,-1.00,-0.21,1.02
38.188,-0.13,-1.18,0.42,1.26
38.198,-0.38,-1.26,0.77,1.52
38.208,-0.74,-1.21,0.90,1.68
38.218,-1.01,-1.13,0.92,1.78
38.228,-1.07,-1.06,0.92,1.76
38.238,-0.89,-0.78,0.88,1.48
38.249,-0.36,-0.60,0.92,1.15
38.258,0.10,-0.49,0.90,1.03
38.269,0.12,-0.33,0.63,0.72
38.279,-0.24,-0.37,0.17,0.47
38.289,-0.62,-0.69,-0.29,0.97
38.299,-0.87,-1.23,-0.62,1.63
38.309,-1.19,-1.88,-0.75,2.35
38.319,-1.58,-2.29,-0.67,2.86
38.329,-1.97,-2.38,-0.60,3.14
38.339,-2.42,-2.43,-0.69,3.49
38.349,-2.73,-2.17,-0.63,3.54
38.359,-2.87,-1.41,-0.23,3.21
38.370,-2.83,-0.48,0.36,2.89
38.380,-2.70,0.49,0.92,2.90
38.390,-2.50,1.49,1.38,3.22
38.400,-2.34,2.41,1.58,3.71
38.410,-1.89,3.26,1.61,4.10
38.420,-1.06,3.99,1.81,4.51
38.430,0.03,4.34,2.45,4.98
38.440,0.80,4.33,3.25,5.47
38.450,1.21,4.05,3.98,5.80
38.460,1.44,3.53,4.73,6.08
38.470,1.45,2.93,5.27,6.20
38.480,1.29,2.54,5.52,6.21
38.490,1.04,2.25,5.37,5.91
38.500,0.63,1.98,4.64,5.09
38.511,0.09,1.81,3.61,4.04
38.521,-0.26,1.69,2.59,3.11
38.531,-0.47,1.50,1.93,2.49
38.541,-0.71,1.40,1.44,2.13
38.551,-1.16,1.14,1.15,1.99
38.561,-1.60,0.65,1.07,2.03
38.571,-1.98,0.15,1.32,2.39
38.581,-2.33,-0.34,1.75,2.94
38.591,-2.59,-0.75,2.14,3.44
38.601,-2.84,-0.97,2.46,3.88
38.611,-2.99,-1.18,2.72,4.21
38.621,-3.05,-1.35,2.70,4.29
38.632,-3.09,-1.33,2.48,4.18
38.642,-3.04,-1.22,2.22,3.95
38.652,-2.87,-1.04,1.92,3.61
38.662,-2.73,-0.92,1.59,3.29
38.672,-2.63,-0.97,1.21,3.05
38.682,-2.56,-1.15,0.79,2.91
38.692,-2.61,-1.45,0.46,3.02
38.702,-2.74,-1.84,0.25,3.31
38.712,-2.69,-2.11,0.15,3.43
38.722,-2.50,-2.25,0.27,3.37
38.732,-2.60,-2.23,0.32,3.44
38.742,-2.89,-2.15,0.30,3.61
38.753,-3.01,-2.02,0.42,3.65
38.762,-3.15,-1.69,0.68,3.64
38.773,-3.29,-1.11,0.98,3.61
38.783,-3.50,-0.28,1.30,3.75
38.793,-3.64,0.96,1.54,4.07
38.803,-3.69,2.23,1.81,4.67
38.813,-3.58,3.30,2.11,5.31
38.823,-3.27,4.20,2.29,5.79
38.833,-3.11,4.80,2.29,6.16
38.843,-3.14,5.00,2.18,6.29
38.853,-2.94,4.81,2.22,6.06
38.863,-2.34,4.54,2.61,5.73
38.873,-1.73,4.11,3.06,5.41
38.883,-1.15,3.66,3.53,5.21
38.894,-0.67,3.39,4.00,5.28
38.904,-0.37,3.27,4.38,5.48
38.914,0.02,3.21,4.57,5.59
38.924,0.38,3.09,4.45,5.43
38.934,0.66,2.82,3.79,4.77
38.944,0.80,2.50,2.83,3.86
38.954,0.91,2.04,1.74,2.83
38.964,0.97,1.60,0.78,2.03
38.974,0.83,1.11,-0.13,1.39
38.984,0.57,0.44,-0.87,1.13
38.995,0.16,-0.17,-1.32,1.34
39.004,-0.37,-0.62,-1.32,1.50
39.015,-0.71,-0.91,-1.04,1.56
39.025,-0.86,-1.04,-0.47,1.43
39.035,-0.68,-1.02,0.41,1.29
39.045,-0.08,-0.89,1.20,1.49
39.056,0.57,-0.89,1.69,1.99
39.065,1.12,-1.01,1.81,2.35
39.075,1.40,-1.07,1.63,2.40
39.085,1.63,-1.07,1.38,2.39
39.095,1.82,-1.14,1.15,2.44
39.105,1.90,-1.20,1.20,2.55
39.115,1.81,-1.16,1.43,2.58
39.125,1.77,-1.07,1.82,2.75
39.136,1.90,-1.11,2.15,3.08
39.145,2.16,-1.22,2.44,3.47
39.156,2.39,-1.26,2.60,3.75
39.166,2.53,-1.31,2.56,3.82
39.176,2.44,-1.50,2.16,3.59
39.186,2.20,-1.75,1.55,3.21
39.196,1.99,-1.98,0.82,2.92
39.206,1.91,-2.16,0.05,2.88
39.216,1.93,-2.25,-0.56,3.02
39.226,2.00,-2.22,-0.96,3.13
39.236,1.93,-2.17,-1.29,3.18
39.246,1.94,-2.15,-1.49,3.26
39.256,2.00,-2.16,-1.52,3.32
39.266,1.99,-2.26,-1.36,3.30
39.276,1.90,-2.49,-1.19,3.34
39.287,1.95,-2.80,-1.20,3.62
39.297,1.93,-2.92,-1.30,3.74
39.307,1.82,-2.78,-1.48,3.64
39.317,1.79,-2.49,-1.75,3.53
39.327,1.82,-2.13,-2.02,3.46
39.337,1.81,-1.74,-2.24,3.37
39.347,1.99,-1.30,-2.42,3.39
39.357,2.12,-0.87,-2.40,3.31
39.367,2.32,-0.64,-2.21,3.26
39.377,2.73,-0.60,-1.79,3.32
39.387,2.75,-0.56,-1.25,3.07
39.398,2.36,-0.60,-0.58,2.50
39.407,1.93,-0.74,0.15,2.07
39.418,1.76,-0.68,0.71,2.01
39.427,1.91,-0.27,1.36,2.36
39.438,2.27,0.21,1.92,2.98
39.448,2.51,0.49,2.22,3.39
39.458,2.30,0.55,2.15,3.19
39.468,1.59,0.51,1.60,2.32
39.478,0.38,0.43,0.74,0.94
39.488,-0.81,0.59,0.02,1.00
39.498,-1.70,0.92,-0.41,1.97
39.508,-2.44,1.19,-0.79,2.83
39.518,-2.82,1.50,-0.74,3.28
39.528,-2.65,1.95,-0.03,3.29
39.539,-2.19,2.23,0.85,3.24
39.549,-1.73,2.39,1.53,3.32
39.559,-1.17,2.65,1.84,3.43
39.569,-0.59,2.90,1.79,3.46
39.579,-0.29,3.19,1.29,3.45
39.589,-0.27,3.41,0.40,3.45
39.599,-0.23,3.53,-0.65,3.59
39.609,-0.09,3.51,-1.62,3.86
39.619,0.32,3.30,-2.42,4.10
39.629,0.61,3.03,-3.04,4.33
39.640,0.78,2.58,-3.31,4.27
39.649,1.10,1.99,-3.44,4.13
39.660,1.31,1.35,-3.45,3.93
39.670,1.26,0.67,-3.41,3.70
39.680,0.98,0.01,-3.39,3.53
39.690,0.82,-0.51,-3.43,3.57
39.700,0.93,-0.84,-3.49,3.71
39.710,1.36,-1.03,-3.40,3.80
39.720,1.86,-1.01,-3.07,3.73
39.730,2.20,-0.85,-2.63,3.54
39.740,2.77,-0.71,-2.19,3.60
39.750,3.49,-0.54,-1.89,4.01
39.760,4.10,-0.48,-1.65,4.45
39.770,4.48,-0.41,-1.47,4.73
39.781,4.69,-0.40,-1.40,4.91
39.790,4.88,-0.42,-1.44,5.10
39.801,4.96,-0.38,-1.47,5.18
39.811,4.99,-0.32,-1.37,5.19
39.821,5.03,-0.29,-1.09,5.15
39.831,5.12,-0.17,-0.70,5.17
39.841,5.18,0.04,-0.34,5.19
39.851,5.12,0.24,-0.10,5.12
39.861,5.00,0.37,0.06,5.02
39.871,4.71,0.38,0.20,4.73
39.881,4.25,0.24,0.35,4.27
39.891,3.94,0.26,0.48,3.98
39.901,3.61,0.38,0.54,3.67
39.911,3.25,0.45,0.60,3.34
39.922,2.81,0.54,0.70,2.95
39.932,2.32,0.54,0.83,2.53
39.942,2.05,0.51,0.99,2.33
39.952,1.85,0.46,1.10,2.20
39.962,1.60,0.30,1.06,1.94
39.972,1.25,0.11,0.99,1.59
39.982,0.91,-0.08,0.90,1.28
39.992,0.72,-0.26,0.74,1.07
40.002,0.60,-0.40,0.60,0.94
40.012,0.35,-0.63,0.46,0.86
40.022,0.15,-0.96,0.30,1.02
40.032,-0.05,-1.35,0.10,1.35
40.043,-0.25,-1.73,-0.07,1.75
40.054,-0.46,-2.07,-0.28,2.14
40.063,-0.65,-2.35,-0.46,2.48
40.073,-0.85,-2.51,-0.61,2.72
40.083,-1.16,-2.64,-0.73,2.97
40.093,-1.46,-2.67,-0.80,3.15
40.103,-1.54,-2.55,-0.80,3.08
40.113,-1.12,-2.45,-0.58,2.76
40.123,-0.53,-2.30,-0.23,2.38
40.133,-0.01,-1.78,0.22,1.79
40.143,0.29,-1.16,0.63,1.35
40.153,0.49,-0.83,0.93,1.34
40.164,0.62,-0.66,1.26,1.56
40.173,0.58,-0.58,1.57,1.77
40.184,0.31,-0.66,1.85,1.98
40.194,-0.21,-0.92,2.04,2.25
40.204,-0.89,-1.31,2.06,2.60
40.214,-1.54,-1.78,2.02,3.11
40.224,-1.87,-1.99,2.02,3.40
40.234,-1.48,-1.59,1.85,2.85
40.244,-1.11,-0.70,1.58,2.06
40.254,-1.20,0.08,1.30,1.77
40.264,-1.44,0.58,0.81,1.75
40.274,-1.69,1.09,0.42,2.05
40.284,-1.87,1.60,0.38,2.49
40.294,-1.79,2.14,0.70,2.87
40.305,-1.45,2.78,1.19,3.35
40.315,-0.92,3.30,1.81,3.88
40.325,-0.11,3.70,2.52,4.48
40.335,0.61,3.88,3.19,5.06
40.345,1.03,3.73,3.55,5.25
40.355,1.22,3.21,3.74,5.08
40.365,1.12,2.54,3.77,4.68
40.375,0.89,1.94,3.70,4.27
40.385,0.54,1.35,3.62,3.91
40.395,-0.01,0.86,3.43,3.54
40.405,-0.49,0.63,3.21,3.31
40.415,-0.72,0.47,2.90,3.03
40.425,-0.97,0.19,2.51,2.70
40.436,-1.10,0.05,2.18,2.44
40.446,-1.08,-0.02,1.81,2.11
40.456,-1.01,-0.21,1.44,1.77
40.466,-0.97,-0.47,1.03,1.49
40.476,-1.01,-0.69,0.68,1.40
40.486,-1.04,-0.84,0.39,1.39
40.496,-1.13,-0.98,0.19,1.51
40.506,-1.18,-1.04,0.04,1.57
40.516,-1.26,-1.08,0.02,1.66
40.526,-1.36,-0.97,0.07,1.67
40.536,-1.35,-0.76,0.19,1.56
40.546,-1.34,-0.66,0.37,1.54
40.556,-1.28,-0.67,0.57,1.55
40.567,-1.11,-0.64,0.86,1.54
40.577,-1.11,-0.60,1.09,1.67
40.587,-1.08,-0.54,1.20,1.70
40.597,-1.01,-0.46,1.33,1.73
40.607,-1.01,-0.39,1.45,1.81
40.617,-1.08,-0.33,1.47,1.86
40.627,-1.17,-0.33,1.45,1.89
40.637,-1.30,-0.29,1.44,1.96
40.647,-1.36,-0.22,1.48,2.02
40.657,-1.26,-0.28,1.61,2.06
40.667,-1.05,-0.51,1.82,2.16
40.677,-0.76,-0.88,2.09,2.39
40.688,-0.51,-1.31,2.23,2.63
40.698,-0.29,-1.79,2.09,2.77
40.708,-0.38,-2.23,1.52,2.72
40.718,-0.77,-2.50,0.57,2.67
40.728,-1.38,-2.57,-0.57,2.98
40.738,-1.97,-2.47,-1.59,3.53
40.748,-2.54,-2.09,-2.26,3.99
40.758,-3.12,-1.62,-2.49,4.31
40.768,-3.62,-1.21,-2.54,4.59
40.778,-3.96,-0.79,-2.17,4.59
40.788,-4.27,-0.18,-1.59,4.56
40.798,-4.37,0.49,-0.90,4.49
40.808,-4.26,1.06,-0.04,4.39
40.818,-4.27,1.44,0.75,4.57
40.829,-4.43,1.62,1.52,4.95
40.839,-4.42,1.70,2.36,5.29
40.849,-4.15,1.80,3.16,5.52
40.859,-3.68,1.97,3.94,5.74
40.869,-3.15,2.15,4.63,6.00
40.879,-2.61,2.28,5.23,6.28
40.889,-2.02,2.29,5.70,6.46
40.899,-1.39,2.19,5.79,6.35
40.909,-0.88,2.13,5.47,5.94
40.919,-0.58,2.00,4.70,5.14
40.929,-0.43,1.73,3.66,4.07
40.939,-0.30,1.49,2.69,3.09
40.950,-0.26,1.22,1.83,2.21
40.960,-0.27,0.91,1.21,1.54
40.970,-0.26,0.57,1.04,1.21
40.980,-0.06,0.19,1.08,1.10
40.990,0.25,-0.16,1.27,1.30
41.000,0.47,-0.45,1.29,1.45
41.010,0.60,-0.71,1.22,1.53
41.020,0.62,-0.97,1.09,1.58
41.030,0.59,-1.20,0.85,1.58
41.040,0.58,-1.27,0.49,1.48
41.050,0.46,-1.23,0.12,1.32
41.060,0.40,-1.22,-0.27,1.31
41.070,0.41,-1.18,-0.47,1.34
41.080,0.40,-1.08,-0.45,1.24
41.091,0.49,-1.01,-0.28,1.16
41.101,0.60,-1.02,-0.07,1.19
41.111,0.59,-1.17,0.14,1.32
41.121,0.57,-1.32,0.34,1.48
41.131,0.64,-1.39,0.47,1.60
41.141,0.76,-1.46,0.51,1.72
41.151,0.99,-1.46,0.46,1.83
41.161,1.20,-1.35,0.37,1.85
41.171,1.33,-1.26,0.22,1.84
41.181,1.55,-1.11,-0.09,1.91
41.191,1.75,-0.82,-0.38,1.97
41.201,1.84,-0.53,-0.56,1.99
41.212,2.04,-0.38,-0.65,2.17
41.222,2.36,-0.36,-0.47,2.44
41.232,2.62,-0.46,-0.31,2.68
41.242,2.79,-0.51,-0.21,2.85
41.252,2.88,-0.54,-0.14,2.93
41.262,2.74,-0.56,-0.23,2.81
41.272,2.36,-0.53,-0.46,2.47
41.282,1.82,-0.33,-0.79,2.01
41.292,1.22,0.00,-1.10,1.64
41.302,0.85,0.27,-1.16,1.46
41.312,0.50,0.46,-1.12,1.31
41.322,0.15,0.55,-0.89,1.06
41.333,-0.06,0.57,-0.59,0.82
41.342,-0.11,0.53,-0.22,0.58
41.353,-0.04,0.44,0.09,0.45
41.363,0.16,0.35,0.30,0.49
41.373,0.32,0.32,0.29,0.54
41.383,0.50,0.29,0.22,0.62
41.393,0.76,0.32,0.06,0.83
41.403,0.89,0.40,-0.27,1.01
41.413,1.02,0.48,-0.66,1.30
41.423,1.23,0.54,-1.01,1.67
41.433,1.42,0.54,-1.19,1.93
41.443,1.62,0.62,-1.29,2.16
41.454,1.68,0.71,-1.25,2.22
41.463,1.70,0.70,-1.05,2.11
41.474,1.72,0.61,-0.88,2.02
41.484,1.76,0.55,-0.77,2.00
41.494,1.73,0.46,-0.74,1.94
41.504,1.70,0.34,-0.81,1.91
41.514,1.63,0.24,-1.00,1.93
41.524,1.70,0.27,-1.15,2.07
41.534,1.83,0.33,-1.25,2.24
41.544,1.87,0.33,-1.16,2.22
41.554,2.00,0.34,-1.05,2.29
41.564,2.25,0.41,-0.89,2.45
41.575,2.30,0.35,-0.75,2.44
41.585,2.41,0.19,-0.68,2.51
41.595,2.61,0.01,-0.71,2.70
41.605,2.70,-0.09,-0.77,2.81
41.615,2.71,-0.23,-0.89,2.86
41.625,2.76,-0.39,-1.15,3.01
41.635,2.96,-0.53,-1.43,3.33
41.645,3.15,-0.67,-1.68,3.64
41.655,3.39,-0.83,-1.95,4.00
41.665,3.64,-1.05,-2.18,4.37
41.675,3.73,-1.27,-2.34,4.58
41.685,3.67,-1.48,-2.46,4.66
41.695,3.54,-1.67,-2.37,4.58
41.705,3.58,-1.78,-2.12,4.53
41.716,3.55,-1.73,-1.76,4.32
41.726,3.43,-1.60,-1.34,4.01
41.736,3.37,-1.62,-0.95,3.86
41.746,3.29,-1.60,-0.71,3.73
41.756,3.13,-1.48,-0.49,3.50
41.766,2.93,-1.33,-0.39,3.24
41.776,2.79,-1.07,-0.22,2.99
41.786,2.79,-0.81,0.09,2.90
41.796,2.71,-0.56,0.48,2.81
41.806,2.72,-0.23,0.87,2.86
41.816,2.78,0.11,1.24,3.04
41.826,2.69,0.43,1.46,3.09
41.837,2.58,0.71,1.48,3.06
41.846,2.49,0.96,1.35,3.00
41.857,2.40,1.13,1.21,2.92
41.867,2.23,1.27,0.97,2.74
41.877,2.09,1.40,0.67,2.61
41.887,1.87,1.46,0.52,2.43
41.897,1.65,1.37,0.42,2.19
41.907,1.45,1.17,0.35,1.89
41.917,1.18,0.86,0.31,1.50
41.927,0.93,0.60,0.28,1.15
41.937,0.76,0.38,0.21,0.87
41.947,0.63,0.06,0.11,0.64
41.957,0.46,-0.22,-0.01,0.52
41.967,0.21,-0.50,-0.13,0.56
41.978,0.08,-0.73,-0.17,0.75
41.988,0.05,-0.76,-0.23,0.79
41.998,0.01,-0.64,-0.21,0.67
42.008,-0.13,-0.65,-0.23,0.70
42.018,-0.13,-0.73,-0.17,0.76
42.028,-0.06,-0.76,0.01,0.76
42.038,-0.08,-0.83,0.24,0.86
42.048,-0.15,-0.92,0.25,0.97
42.058,-0.34,-0.99,0.06,1.05
42.068,-0.70,-1.00,-0.26,1.25
42.078,-0.94,-0.99,-0.49,1.45
42.088,-1.07,-0.90,-0.52,1.49
42.099,-1.29,-0.76,-0.51,1.58
42.108,-1.41,-0.62,-0.43,1.60
42.119,-1.41,-0.57,-0.42,1.58
42.129,-1.32,-0.38,-0.50,1.46
42.139,-1.39,-0.17,-0.74,1.59
42.149,-1.64,-0.02,-1.00,1.92
42.159,-1.83,0.11,-1.18,2.18
42.169,-1.87,0.23,-1.08,2.17
42.179,-1.66,0.33,-0.60,1.79
42.189,-1.47,0.38,0.10,1.52
42.199,-1.14,0.38,0.56,1.32
42.209,-0.69,0.47,0.70,1.09
42.220,-0.40,0.69,0.77,1.11
42.229,-0.20,0.75,0.64,1.00
42.240,-0.17,0.67,0.26,0.73
42.250,-0.25,0.72,-0.20,0.79
42.260,-0.20,0.75,-0.61,0.99
42.270,-0.20,0.64,-0.93,1.15
42.280,-0.52,0.49,-1.05,1.27
42.290,-0.97,0.23,-0.92,1.36
42.300,-1.26,-0.07,-0.55,1.38
42.310,-1.47,-0.23,-0.13,1.49
42.320,-1.75,-0.40,0.26,1.82
42.330,-1.95,-0.47,0.77,2.15
42.340,-2.03,-0.51,1.31,2.47
42.350,-1.96,-0.52,1.77,2.69
42.360,-1.78,-0.38,2.19,2.85
42.371,-1.51,-0.17,2.49,2.91
42.381,-1.32,-0.03,2.54,2.86
42.391,-1.24,0.16,2.50,2.80
42.401,-1.17,0.30,2.39,2.67
42.411,-0.95,0.47,2.29,2.52
42.421,-0.74,0.71,2.22,2.45
42.431,-0.61,0.87,2.17,2.42
42.441,-0.48,1.02,2.05,2.34
42.451,-0.42,1.24,1.93,2.33
42.461,-0.39,1.37,1.85,2.33
42.471,-0.32,1.31,1.75,2.21
42.482,-0.39,1.23,1.69,2.12
42.491,-0.52,1.12,1.66,2.07
42.502,-0.71,0.97,1.64,2.04
42.512,-0.95,0.76,1.63,2.03
42.522,-1.26,0.59,1.62,2.14
42.532,-1.62,0.45,1.67,2.37
42.542,-1.79,0.40,1.89,2.63
42.552,-1.85,0.40,2.28,2.97
42.562,-1.84,0.39,2.70,3.29
42.572,-1.81,0.36,3.04,3.55
42.582,-1.81,0.37,3.24,3.73
42.592,-1.85,0.38,3.24,3.75
42.603,-1.82,0.38,3.02,3.54
42.612,-1.73,0.39,2.62,3.16
42.623,-1.77,0.37,2.16,2.82
42.633,-1.87,0.30,1.75,2.58
42.643,-1.96,0.16,1.37,2.40
42.653,-2.01,-0.02,1.19,2.34
42.663,-2.02,-0.36,1.07,2.32
42.673,-2.07,-0.77,0.88,2.38
42.683,-2.33,-1.08,0.50,2.62
42.693,-2.75,-1.28,0.06,3.03
42.703,-3.22,-1.34,-0.25,3.50
42.713,-3.52,-1.21,-0.23,3.73
42.723,-3.58,-0.97,0.01,3.71
42.733,-3.44,-0.59,0.22,3.50
42.744,-3.44,-0.08,0.20,3.44
42.754,-3.60,0.56,-0.09,3.64
42.764,-3.68,1.15,-0.48,3.88
42.774,-3.69,1.68,-0.90,4.15
42.784,-3.67,2.20,-1.12,4.42
