time,ax,ay,az,atotal
0.000,-0.22,-0.26,0.40,0.53
0.010,-0.25,-0.29,0.10,0.40
0.020,-0.16,-0.22,-0.17,0.32
0.030,-0.13,-0.06,-0.36,0.39
0.040,-0.01,0.02,-0.53,0.53
0.050,0.17,0.14,-0.69,0.72
0.060,0.20,0.28,-0.68,0.76
0.071,0.16,0.26,-0.47,0.56
0.081,0.20,0.15,-0.19,0.31
0.091,0.32,0.06,0.09,0.34
0.101,0.32,-0.03,0.32,0.46
0.111,0.22,-0.16,0.57,0.63
0.121,0.17,-0.26,0.78,0.84
0.131,0.15,-0.33,0.86,0.93
0.141,0.17,-0.40,0.84,0.95
0.151,0.11,-0.44,0.66,0.81
0.161,-0.01,-0.35,0.36,0.50
0.171,-0.11,-0.18,0.08,0.23
0.181,-0.18,-0.15,-0.16,0.28
0.191,-0.23,-0.09,-0.19,0.31
0.202,-0.24,-0.13,0.11,0.30
0.212,-0.04,-0.23,0.60,0.65
0.222,0.10,-0.38,1.06,1.13
0.232,0.31,-0.36,1.43,1.51
0.242,0.64,-0.44,1.65,1.82
0.252,1.00,-0.67,1.67,2.06
0.262,1.32,-0.87,1.51,2.18
0.272,1.50,-0.92,1.19,2.12
0.282,1.46,-0.84,0.72,1.84
0.292,1.34,-0.73,0.28,1.55
0.302,1.20,-0.70,-0.06,1.39
0.312,1.00,-0.80,-0.29,1.32
0.323,0.83,-0.95,-0.31,1.30
0.333,0.60,-1.16,-0.11,1.31
0.343,0.50,-1.35,0.26,1.47
0.353,0.59,-1.49,0.68,1.75
0.363,0.86,-1.49,0.99,1.99
0.373,1.07,-1.52,1.04,2.13
0.383,1.19,-1.50,0.88,2.10
0.393,1.15,-1.47,0.65,1.98
0.403,0.96,-1.49,0.45,1.83
0.413,0.84,-1.50,0.33,1.75
0.423,0.71,-1.58,0.31,1.76
0.433,0.66,-1.60,0.52,1.80
0.443,0.79,-1.61,0.89,2.01
0.453,0.99,-1.65,1.23,2.29
0.464,1.20,-1.69,1.49,2.55
0.474,1.31,-1.65,1.60,2.65
0.484,1.38,-1.55,1.55,2.59
0.494,1.48,-1.42,1.32,2.44
0.504,1.53,-1.35,1.02,2.28
0.514,1.51,-1.27,0.67,2.08
0.524,1.41,-1.18,0.32,1.87
0.534,1.22,-1.18,0.02,1.69
0.544,0.94,-1.14,-0.12,1.48
0.554,0.62,-1.16,-0.18,1.33
0.564,0.41,-1.16,-0.32,1.27
0.574,0.29,-1.03,-0.38,1.14
0.585,0.19,-0.79,-0.28,0.86
0.595,0.14,-0.58,-0.17,0.62
0.605,0.07,-0.48,-0.19,0.52
0.616,-0.00,-0.48,-0.27,0.55
0.625,-0.10,-0.55,-0.35,0.66
0.635,-0.13,-0.62,-0.46,0.78
0.645,-0.09,-0.61,-0.51,0.80
0.655,-0.10,-0.56,-0.57,0.80
0.665,-0.18,-0.39,-0.72,0.84
0.675,-0.28,-0.10,-0.67,0.73
0.685,-0.58,0.05,-0.36,0.69
0.695,-0.96,0.05,0.05,0.97
0.705,-1.09,0.15,0.47,1.19
0.715,-1.09,0.22,0.76,1.35
0.726,-1.14,0.20,0.95,1.50
0.736,-1.06,0.24,1.11,1.55
0.746,-0.84,0.33,1.21,1.51
0.756,-0.65,0.40,1.05,1.30
0.766,-0.68,0.45,0.73,1.09
0.776,-0.74,0.47,0.39,0.96
0.786,-0.71,0.50,-0.08,0.88
0.796,-0.74,0.47,-0.63,1.07
0.806,-0.83,0.54,-1.04,1.44
0.816,-0.86,0.58,-1.32,1.68
0.826,-0.84,0.48,-1.42,1.72
0.836,-0.84,0.36,-1.27,1.57
0.846,-0.68,0.30,-1.04,1.28
0.856,-0.44,0.20,-0.90,1.02
0.867,-0.26,0.01,-0.70,0.74
0.877,-0.16,-0.18,-0.50,0.55
0.887,-0.02,-0.29,-0.37,0.47
0.897,0.18,-0.30,-0.30,0.46
0.907,0.41,-0.22,-0.29,0.55
0.917,0.59,-0.16,-0.34,0.70
0.927,0.69,-0.15,-0.51,0.87
0.937,0.69,-0.10,-0.61,0.93
0.947,0.68,-0.04,-0.77,1.03
0.957,0.66,0.06,-0.82,1.05
0.968,0.51,0.10,-0.80,0.95
0.978,0.34,-0.04,-0.78,0.85
0.988,0.24,-0.21,-0.62,0.69
0.998,0.18,-0.43,-0.50,0.68
1.008,0.05,-0.74,-0.65,0.99
1.018,-0.11,-0.88,-1.04,1.37
1.028,-0.18,-0.78,-1.56,1.75
1.038,-0.07,-0.58,-1.98,2.07
1.048,0.10,-0.41,-2.31,2.35
1.058,0.12,-0.32,-2.23,2.25
1.068,-0.02,-0.50,-1.55,1.63
1.078,-0.42,-1.00,-0.76,1.33
1.088,-0.87,-1.46,-0.03,1.70
1.098,-1.26,-1.83,0.52,2.29
1.109,-1.40,-1.89,1.04,2.57
1.119,-1.16,-1.73,1.46,2.54
1.129,-0.91,-1.95,1.52,2.64
1.139,-0.66,-2.12,1.33,2.59
1.149,-0.32,-1.89,0.96,2.14
1.159,0.15,-1.32,0.29,1.36
1.169,0.53,-0.76,-0.24,0.96
1.179,0.60,-0.63,-0.37,0.95
1.189,0.53,-1.16,-0.05,1.28
1.199,0.16,-1.99,0.41,2.04
1.209,-0.29,-2.90,0.76,3.01
1.219,-0.57,-3.57,1.16,3.80
1.230,-0.67,-3.81,1.59,4.18
1.239,-0.38,-3.65,1.47,3.95
1.250,0.38,-2.95,0.44,3.00
1.260,1.13,-1.68,-0.60,2.11
1.270,1.58,-0.30,-0.70,1.75
1.280,1.63,0.64,0.40,1.80
1.290,1.51,0.81,1.35,2.18
1.300,1.41,1.06,1.63,2.41
1.310,1.54,1.72,0.97,2.50
1.320,1.53,2.89,-0.48,3.31
1.330,1.05,4.45,-2.01,5.00
1.340,0.47,5.60,-3.38,6.55
1.351,-0.27,5.77,-5.07,7.69
1.360,-1.67,5.56,-6.78,8.93
1.371,-4.47,5.51,-8.78,11.29
1.381,-6.92,4.05,-10.09,12.89
1.391,-6.57,0.90,-10.54,12.45
1.401,-5.03,-1.48,-10.57,11.80
1.411,-3.04,-1.30,-10.44,10.95
1.421,-0.85,0.05,-9.81,9.85
1.431,2.33,1.00,-7.58,7.99
1.441,4.16,0.63,-1.20,4.38
1.451,3.43,-1.04,9.04,9.73
1.462,2.68,-2.73,13.35,13.88
1.472,2.15,-3.62,15.12,15.70
1.481,2.01,-3.31,14.40,14.92
1.491,2.28,-1.59,10.70,11.06
1.502,2.38,-0.01,7.85,8.20
1.512,2.49,0.18,6.09,6.58
1.522,2.03,0.30,4.42,4.87
1.532,1.38,0.62,2.89,3.26
1.542,1.15,0.69,1.79,2.24
1.552,1.14,0.53,0.97,1.58
1.562,1.06,0.63,0.02,1.23
1.572,1.09,1.36,-0.23,1.75
1.582,1.04,1.62,-0.20,1.94
1.592,0.69,1.46,-0.38,1.66
1.602,0.03,1.27,-0.90,1.56
1.612,-0.53,1.06,-1.56,1.96
1.623,-0.84,0.88,-2.17,2.48
1.633,-0.57,1.01,-2.42,2.68
1.643,0.29,1.42,-2.24,2.67
1.653,1.23,1.64,-2.27,3.06
1.663,1.64,1.76,-2.38,3.39
1.673,1.40,1.97,-1.97,3.12
1.683,0.97,1.76,-1.92,2.78
1.693,0.54,1.42,-2.51,2.93
1.703,0.07,1.09,-3.04,3.23
1.713,-0.27,0.87,-3.33,3.45
1.723,-0.72,1.11,-2.59,2.91
1.733,-1.19,1.51,-0.59,2.01
1.743,-1.00,1.61,2.11,2.84
1.754,0.33,1.45,4.10,4.36
1.764,1.82,1.37,4.10,4.69
1.774,2.73,2.33,4.17,5.50
1.784,3.31,3.23,4.33,6.34
1.794,3.32,3.30,5.17,6.98
1.804,2.43,2.82,5.82,6.91
1.814,1.45,2.44,5.73,6.40
1.824,1.02,2.26,4.77,5.38
1.834,1.05,2.26,3.75,4.50
1.844,1.31,2.06,2.98,3.85
1.854,1.42,1.87,2.31,3.29
1.864,1.06,0.89,1.88,2.34
1.874,0.32,-0.37,1.38,1.47
1.885,0.78,0.54,0.11,0.96
1.895,1.39,1.73,-1.69,2.79
1.905,1.48,0.95,-3.45,3.87
1.915,0.93,-0.07,-4.46,4.55
1.925,-0.20,-0.59,-5.02,5.06
1.935,-0.74,-0.99,-5.35,5.49
1.945,-1.06,-1.63,-5.55,5.88
1.955,-1.23,-1.96,-5.49,5.95
1.965,-1.43,-2.07,-5.42,5.98
1.975,-2.11,-2.18,-5.44,6.23
1.985,-3.25,-2.16,-5.66,6.88
1.996,-3.80,-2.34,-6.17,7.61
2.006,-3.93,-2.52,-6.72,8.18
2.016,-4.01,-2.36,-7.40,8.74
2.026,-4.13,-2.03,-7.93,9.17
2.036,-3.99,-2.00,-8.07,9.22
2.046,-3.26,-2.47,-7.26,8.33
2.056,-1.95,-2.76,-4.70,5.79
2.066,-0.51,-2.68,-0.98,2.90
2.076,0.44,-2.79,2.48,3.76
2.086,1.07,-2.50,4.39,5.17
2.096,1.26,-1.88,4.77,5.28
2.106,0.94,-1.52,4.72,5.05
2.116,0.47,-1.26,4.27,4.48
2.126,0.19,-0.97,3.31,3.45
2.136,0.15,-0.54,2.27,2.33
2.147,0.12,-0.23,1.73,1.75
2.157,0.23,-0.18,1.75,1.78
2.167,0.65,-0.19,2.06,2.17
2.177,1.09,-0.23,2.49,2.73
2.187,1.20,-0.36,2.75,3.02
2.197,1.10,-0.51,2.63,2.90
2.207,0.85,-0.57,2.20,2.43
2.217,0.56,-0.62,1.66,1.86
2.227,0.39,-0.60,1.09,1.30
2.237,0.34,-0.50,0.48,0.78
2.247,0.37,-0.46,0.08,0.59
2.257,0.17,-0.39,-0.37,0.57
2.268,-0.07,-0.35,-0.74,0.82
2.278,-0.33,-0.30,-0.96,1.06
2.288,-0.61,-0.15,-1.19,1.34
2.298,-0.73,0.18,-1.39,1.58
2.308,-0.85,0.56,-1.35,1.69
2.318,-1.21,1.16,-1.09,2.00
2.328,-1.50,1.81,-0.75,2.47
2.338,-1.83,2.29,-0.45,2.97
2.348,-2.17,2.68,-0.02,3.45
2.358,-2.31,2.89,0.56,3.74
2.368,-2.21,3.08,0.91,3.90
2.378,-1.92,3.24,1.17,3.95
2.389,-1.52,3.53,1.53,4.14
2.398,-1.28,3.72,2.06,4.44
2.409,-1.22,3.75,2.81,4.84
2.419,-1.02,3.34,3.44,4.90
2.429,-0.55,2.52,3.81,4.60
2.439,-0.12,1.77,4.11,4.47
2.449,0.14,1.16,4.31,4.47
2.459,0.21,0.58,4.02,4.06
2.469,-0.05,0.01,2.99,2.99
2.479,-0.58,-0.43,1.52,1.69
2.489,-1.24,-0.80,0.15,1.48
2.499,-1.92,-1.07,-1.04,2.43
2.509,-2.41,-1.25,-2.11,3.44
2.520,-2.53,-1.47,-2.95,4.16
2.530,-2.60,-1.54,-3.56,4.67
2.540,-2.57,-1.50,-4.10,5.07
2.550,-2.39,-1.58,-4.40,5.25
2.560,-2.20,-1.54,-4.34,5.10
2.570,-1.88,-1.51,-4.04,4.70
2.580,-1.62,-1.50,-3.59,4.21
2.590,-1.14,-1.41,-2.89,3.41
2.600,-0.62,-1.37,-1.85,2.38
2.610,-0.17,-1.31,-0.63,1.46
2.620,0.40,-1.27,0.56,1.44
2.630,0.89,-1.26,1.77,2.35
2.640,1.43,-1.16,2.72,3.28
2.651,1.74,-1.10,3.26,3.85
2.661,1.58,-1.03,3.12,3.64
2.671,1.20,-0.97,2.10,2.61
2.681,0.44,-1.17,1.00,1.60
2.691,0.13,-1.01,0.74,1.26
2.701,0.15,-1.22,0.87,1.51
2.711,0.33,-1.42,1.12,1.84
2.721,0.59,-1.32,1.53,2.11
2.731,0.44,-1.10,1.56,1.96
2.741,0.01,-0.98,0.84,1.29
2.751,-0.13,-1.22,-0.35,1.27
2.761,-0.01,-1.39,-0.98,1.70
2.771,-0.04,-1.35,-1.06,1.71
2.782,-0.40,-1.51,-0.96,1.83
2.792,-0.73,-1.94,-0.80,2.22
2.802,-0.96,-2.32,-0.63,2.59
2.812,-1.26,-2.51,-0.48,2.85
2.822,-1.43,-2.67,-0.33,3.05
2.832,-1.55,-2.89,-0.03,3.27
2.842,-1.49,-2.77,0.16,3.15
2.852,-1.26,-2.24,0.23,2.58
2.862,-0.93,-1.87,0.29,2.11
2.872,-0.51,-1.77,0.37,1.88
2.882,-0.01,-1.76,0.58,1.85
2.892,0.67,-1.47,0.89,1.84
2.902,1.77,-0.83,1.03,2.21
2.913,3.04,-0.07,0.51,3.08
2.923,4.58,1.24,-3.46,5.87
2.933,4.76,2.91,-2.68,6.19
2.943,4.51,4.07,1.20,6.20
2.953,4.70,3.77,1.46,6.20
2.963,4.27,3.42,4.62,7.17
2.973,5.47,4.00,6.14,9.15
2.983,6.24,4.22,7.34,10.52
2.993,6.61,4.03,7.47,10.76
3.003,6.99,3.96,6.77,10.51
3.013,7.31,3.70,5.52,9.88
3.023,7.13,3.17,3.97,8.76
3.034,6.32,3.03,2.56,7.46
3.044,4.58,3.27,1.47,5.81
3.054,2.31,3.68,0.27,4.35
3.064,0.69,3.51,-1.05,3.73
3.074,-0.14,2.91,-2.29,3.70
3.084,-0.54,2.07,-3.35,3.98
3.094,-1.11,1.50,-4.10,4.50
3.104,-1.56,1.12,-4.52,4.91
3.114,-1.06,0.70,-4.39,4.57
3.124,-0.94,0.12,-4.52,4.62
3.134,-1.29,-0.61,-5.11,5.30
3.144,-1.90,-1.27,-5.73,6.17
3.154,-2.86,-1.85,-6.39,7.24
3.165,-3.69,-2.52,-6.95,8.26
3.174,-4.04,-3.38,-7.21,8.93
3.185,-4.30,-4.32,-7.00,9.28
3.195,-4.49,-5.18,-6.45,9.41
3.205,-4.65,-5.90,-5.74,9.45
3.215,-4.89,-6.33,-4.93,9.40
3.225,-5.12,-6.36,-3.64,8.94
3.235,-4.85,-6.36,-3.46,8.71
3.245,-3.90,-6.44,-2.45,7.92
3.255,-3.55,-6.20,-2.19,7.47
3.265,-3.09,-5.26,-1.65,6.32
3.275,-1.77,-4.36,-0.66,4.75
3.286,-0.23,-3.72,0.48,3.76
3.296,1.14,-2.98,2.00,3.77
3.306,1.94,-2.13,3.23,4.33
3.316,2.64,-1.63,4.30,5.30
3.326,3.16,-1.35,5.20,6.24
3.336,3.50,-1.03,5.77,6.83
3.346,3.65,-0.65,5.87,6.95
3.356,3.85,-0.13,5.38,6.62
3.366,3.60,0.21,4.79,5.99
3.376,2.89,0.50,3.97,4.93
3.386,2.23,1.09,2.95,3.86
3.396,1.59,1.62,1.92,2.98
3.406,0.95,1.72,0.76,2.10
3.417,0.18,1.83,-0.27,1.86
3.427,-0.35,2.28,-0.91,2.48
3.437,-0.50,2.95,-1.17,3.22
3.447,-0.40,3.56,-1.18,3.77
3.457,-0.12,4.12,-0.92,4.22
3.467,0.19,4.57,-0.25,4.58
3.477,0.65,4.89,0.60,4.97
3.487,1.01,5.07,1.51,5.38
3.497,1.15,5.05,2.29,5.66
3.507,1.03,4.85,2.66,5.63
3.517,0.85,4.66,2.78,5.49
3.527,0.54,4.47,2.49,5.15
3.538,-0.08,4.20,1.72,4.54
3.548,-0.79,3.74,0.80,3.91
3.558,-1.28,3.21,0.00,3.46
3.568,-1.55,2.72,-0.53,3.17
3.578,-1.64,2.17,-0.75,2.82
3.588,-1.55,1.56,-0.69,2.31
3.598,-1.42,0.89,-0.37,1.71
3.608,-1.40,0.09,-0.02,1.40
3.618,-1.41,-0.78,0.20,1.62
3.628,-1.41,-1.64,0.35,2.19
3.638,-1.50,-2.39,0.34,2.85
3.648,-1.74,-2.96,0.02,3.43
3.658,-2.11,-3.35,-0.51,4.00
3.668,-2.50,-3.65,-1.15,4.58
3.679,-2.78,-3.81,-1.84,5.07
3.689,-2.85,-3.86,-2.39,5.36
3.699,-2.73,-3.71,-2.64,5.31
3.709,-2.43,-3.55,-2.66,5.06
3.719,-2.10,-3.52,-2.45,4.77
3.729,-1.78,-3.57,-2.18,4.55
3.739,-1.39,-3.65,-2.00,4.39
3.749,-1.07,-3.63,-1.85,4.22
3.759,-0.84,-3.51,-1.70,3.99
3.769,-0.56,-3.37,-1.25,3.64
3.779,-0.29,-3.09,-0.42,3.13
3.789,0.23,-2.65,0.58,2.72
3.800,1.18,-2.28,1.81,3.14
3.810,2.15,-1.95,3.13,4.27
3.820,2.99,-1.64,4.21,5.42
3.830,3.58,-1.41,4.98,6.30
3.840,3.64,-1.28,5.25,6.52
3.850,3.28,-1.22,4.90,6.03
3.860,2.66,-1.14,4.17,5.07
3.870,1.82,-0.99,3.07,3.70
3.880,1.09,-0.83,1.90,2.34
3.890,0.52,-0.62,0.89,1.21
3.900,0.21,-0.35,0.23,0.46
3.910,0.14,0.05,-0.12,0.20
3.920,0.30,0.59,-0.24,0.70
3.930,0.51,1.15,-0.18,1.27
3.940,0.74,1.56,-0.17,1.73
3.951,1.01,1.80,-0.12,2.06
3.961,1.24,1.88,0.01,2.25
3.971,1.37,1.82,0.20,2.29
3.981,1.38,1.66,0.50,2.22
3.991,1.08,1.60,0.73,2.06
4.001,0.45,1.68,0.66,1.86
4.011,-0.37,1.92,0.29,1.98
4.021,-1.09,2.27,-0.18,2.53
4.031,-1.62,2.67,-0.61,3.18
4.041,-1.85,3.19,-0.91,3.80
4.051,-1.68,3.64,-0.87,4.10
4.062,-1.54,4.00,-0.61,4.33
4.072,-1.73,4.10,-0.53,4.48
4.082,-1.84,4.04,-0.42,4.46
4.092,-1.87,3.91,-0.15,4.34
4.102,-1.84,3.62,0.16,4.06
4.112,-1.75,3.18,0.41,3.65
4.122,-1.65,2.73,0.73,3.28
4.132,-1.43,2.28,1.06,2.89
4.142,-1.10,1.81,1.32,2.49
4.152,-0.82,1.31,1.57,2.20
4.162,-0.48,0.82,1.95,2.17
4.172,-0.16,0.39,2.23,2.27
4.183,-0.06,0.11,2.07,2.08
4.192,-0.16,-0.01,1.46,1.47
4.203,-0.57,-0.19,0.45,0.75
4.213,-1.01,-0.30,-0.62,1.22
4.223,-1.40,-0.37,-1.52,2.10
4.233,-1.55,-0.40,-2.06,2.61
4.243,-1.35,-0.45,-2.00,2.46
4.253,-0.88,-0.52,-1.50,1.81
4.263,-0.44,-0.63,-0.81,1.12
4.273,-0.18,-0.81,-0.17,0.85
4.283,0.09,-0.99,0.03,0.99
4.293,0.28,-1.04,-0.16,1.08
4.303,0.24,-0.89,-0.16,0.94
4.313,0.12,-0.61,-0.55,0.83
4.323,0.04,-0.44,-1.05,1.14
4.334,0.01,-0.30,-1.32,1.35
4.344,0.05,-0.26,-1.07,1.10
4.354,0.23,-0.42,-0.27,0.55
4.364,0.36,-0.77,0.60,1.04
4.374,0.34,-1.26,1.35,1.88
4.384,0.17,-1.72,1.86,2.54
4.394,-0.15,-1.98,1.93,2.76
4.404,-0.41,-2.04,1.57,2.61
4.414,-0.58,-2.05,1.07,2.38
4.424,-0.59,-2.01,0.59,2.18
4.434,-0.42,-1.80,0.10,1.85
4.444,-0.17,-1.64,-0.44,1.71
4.455,0.09,-1.59,-0.82,1.79
4.465,0.23,-1.62,-1.06,1.95
4.475,0.16,-1.71,-1.19,2.09
4.485,-0.00,-1.79,-1.26,2.19
4.495,-0.08,-1.80,-1.18,2.15
4.505,-0.09,-1.88,-0.72,2.02
4.515,-0.05,-1.99,-0.10,2.00
4.525,0.15,-1.94,0.27,1.96
4.535,0.48,-1.61,0.48,1.74
4.545,0.68,-1.42,0.67,1.71
4.555,0.59,-1.37,0.68,1.64
4.565,0.44,-1.08,0.37,1.23
4.575,0.55,-0.66,-0.12,0.87
4.586,1.01,-0.36,-0.59,1.23
4.596,1.75,-0.14,-0.62,1.86
4.606,2.29,-0.16,-0.15,2.30
4.616,2.53,-0.38,0.61,2.63
4.626,2.36,-0.62,1.49,2.86
4.636,1.63,-0.86,2.11,2.80
4.646,0.67,-0.96,2.38,2.65
4.656,-0.20,-0.98,2.42,2.62
4.666,-0.89,-0.96,2.31,2.65
4.676,-1.06,-0.91,1.99,2.43
4.686,-1.05,-0.57,1.52,1.93
4.696,-0.49,-0.19,0.43,0.67
4.706,0.12,0.08,-0.58,0.60
4.717,0.11,0.42,-0.87,0.97
4.727,0.02,0.75,-0.81,1.11
4.737,0.18,1.05,-0.66,1.25
4.747,0.49,1.11,-0.32,1.26
4.757,0.95,1.10,0.25,1.48
4.767,1.50,1.28,0.91,2.18
4.777,1.41,1.52,1.03,2.31
4.787,0.76,1.76,0.62,2.02
4.797,-0.18,1.94,-0.07,1.95
4.807,-0.81,2.08,-0.80,2.37
4.817,-0.89,2.09,-1.22,2.58
4.827,-0.76,1.95,-1.24,2.43
4.838,-0.75,1.86,-0.93,2.21
4.848,-0.79,1.76,-0.43,1.97
4.858,-0.80,1.53,0.09,1.73
4.868,-0.71,1.41,0.42,1.64
4.878,-0.68,1.18,0.52,1.46
4.888,-0.57,1.10,0.38,1.30
4.898,-0.54,1.01,-0.11,1.15
4.908,-0.54,0.90,-0.74,1.29
4.918,-0.67,0.96,-1.42,1.84
4.928,-0.80,1.14,-2.15,2.56
4.938,-0.64,1.11,-2.91,3.18
4.948,-0.80,1.13,-3.39,3.66
4.958,-1.27,1.03,-3.76,4.10
4.969,-1.70,0.86,-3.97,4.40
4.979,-1.29,0.40,-3.71,3.95
4.989,-0.23,-0.41,-2.73,2.77
4.999,0.39,-0.95,-1.11,1.51
5.009,0.93,-1.30,0.70,1.75
5.019,1.03,-1.76,1.99,2.85
5.029,0.56,-2.00,2.53,3.27
5.039,0.27,-2.19,2.36,3.23
5.049,-0.03,-2.10,1.82,2.77
5.059,-0.30,-1.91,0.95,2.15
5.069,-0.37,-1.65,0.23,1.71
5.079,-0.35,-1.23,-0.35,1.33
5.089,-0.17,-0.91,-0.84,1.25
5.100,0.25,-0.57,-0.84,1.04
5.110,0.80,-0.20,0.07,0.82
5.120,1.41,-0.01,1.41,1.99
5.130,1.85,0.24,2.62,3.22
5.140,2.22,0.38,3.92,4.52
5.150,2.50,0.49,4.07,4.80
5.160,2.60,0.37,3.63,4.49
5.170,2.29,0.20,2.97,3.75
5.180,1.74,0.28,1.92,2.61
5.190,1.30,0.50,0.84,1.63
5.200,1.47,1.20,0.18,1.90
5.210,1.78,1.50,-0.12,2.33
5.220,1.29,0.90,0.34,1.61
5.231,0.57,0.28,1.18,1.34
5.241,0.43,-0.01,1.57,1.63
5.251,0.71,-0.10,1.29,1.47
5.261,1.05,-0.24,0.89,1.39
5.271,1.15,-0.53,0.88,1.55
5.281,1.05,-0.56,1.07,1.60
5.291,0.89,-0.59,1.08,1.52
5.301,0.66,-0.75,0.63,1.18
5.311,0.38,-0.84,-0.22,0.95
5.321,0.18,-0.75,-1.46,1.65
5.331,0.12,-0.58,-2.68,2.75
5.341,-0.20,-0.63,-3.26,3.32
5.352,-0.58,-0.61,-3.46,3.56
5.362,-0.90,-0.42,-3.45,3.59
5.372,-1.12,-0.38,-2.91,3.14
5.382,-0.93,-0.42,-2.64,2.83
5.392,-0.58,-0.44,-2.68,2.77
5.402,-0.41,-0.36,-3.08,3.13
5.412,-0.43,-0.24,-3.56,3.59
5.422,-0.68,-0.19,-3.88,3.95
5.432,-1.07,-0.10,-4.11,4.25
5.442,-1.36,-0.06,-4.10,4.32
5.452,-1.45,-0.07,-3.91,4.17
5.462,-1.34,0.05,-3.43,3.68
5.472,-0.89,0.22,-2.56,2.72
5.482,-0.40,0.28,-1.54,1.62
5.493,0.03,0.29,-0.49,0.57
5.503,0.19,0.40,0.54,0.70
5.513,0.18,0.51,1.30,1.41
5.523,0.19,0.59,1.71,1.82
5.533,0.12,0.68,1.76,1.89
5.543,0.11,0.74,1.71,1.87
5.553,0.21,0.75,1.69,1.86
5.563,0.41,0.78,1.83,2.04
5.573,0.55,0.76,1.86,2.08
5.583,0.66,0.76,1.64,1.93
5.593,0.81,0.75,1.11,1.57
5.603,0.98,0.81,0.39,1.33
5.614,1.08,0.83,-0.27,1.39
5.624,1.07,0.80,-0.77,1.54
5.634,0.87,0.68,-1.01,1.49
5.644,0.50,0.49,-1.06,1.27
5.654,0.12,0.35,-1.16,1.22
5.664,-0.09,0.37,-1.31,1.37
5.674,-0.19,0.54,-1.39,1.50
5.684,-0.41,0.59,-1.56,1.72
5.694,-0.79,0.69,-1.68,1.98
5.704,-1.11,0.77,-1.58,2.07
5.714,-1.20,0.76,-1.32,1.94
5.724,-1.31,0.81,-1.00,1.83
5.735,-1.32,0.98,-0.90,1.88
5.745,-1.36,1.18,-1.09,2.10
5.755,-1.69,1.34,-1.27,2.50
5.765,-1.81,1.09,-1.56,2.62
5.775,-2.00,1.03,-2.04,3.04
5.785,-2.30,0.93,-1.74,3.03
5.795,-2.17,0.45,-1.23,2.54
5.805,-1.69,0.11,-0.73,1.85
5.815,-1.27,-0.01,0.07,1.27
5.825,-0.93,-0.12,1.09,1.44
5.835,-0.53,-0.34,1.90,2.00
5.845,-0.63,-0.50,1.99,2.14
5.855,-0.90,-0.73,1.59,1.97
5.866,-1.05,-1.09,1.15,1.90
5.876,-1.10,-1.15,1.12,1.95
5.886,-0.88,-1.11,1.29,1.91
5.896,-0.27,-0.95,1.29,1.63
5.906,0.13,-0.81,1.26,1.51
5.916,0.06,-0.90,1.23,1.53
5.926,0.00,-1.00,1.58,1.87
5.936,0.14,-0.94,2.06,2.27
5.946,0.43,-0.84,2.24,2.43
5.956,0.28,-0.84,1.94,2.14
5.966,-0.12,-0.93,1.42,1.71
5.976,-0.31,-0.89,1.17,1.50
5.986,-0.29,-0.79,1.24,1.50
5.996,-0.24,-0.62,1.21,1.38
6.006,-0.50,-0.48,0.53,0.87
6.017,-0.87,-0.43,-0.33,1.03
6.027,-0.71,-0.46,-1.27,1.53
6.037,-0.10,-0.88,-1.93,2.12
6.047,0.29,-0.80,-1.32,1.57
6.057,0.51,-0.29,0.24,0.64
6.067,0.64,-0.28,2.07,2.19
6.077,1.16,-0.81,2.50,2.87
6.087,1.62,-1.03,2.31,3.01
6.097,1.71,-0.82,2.30,2.98
6.107,1.67,-0.61,2.04,2.71
6.117,1.54,-0.57,1.59,2.29
6.128,1.46,-0.56,1.11,1.92
6.138,1.34,-0.51,0.64,1.57
6.148,1.03,-0.48,0.16,1.15
6.158,0.70,-0.50,-0.27,0.91
6.168,0.40,-0.44,-0.52,0.79
6.178,0.13,-0.38,-0.59,0.72
6.188,-0.11,-0.35,-0.50,0.62
6.198,-0.26,-0.24,-0.45,0.57
6.208,-0.43,0.08,-0.50,0.67
6.218,-0.54,0.48,-0.75,1.05
6.228,-0.64,0.79,-1.39,1.72
6.238,-0.80,1.06,-2.03,2.42
6.249,-0.88,1.20,-2.37,2.80
6.259,-0.73,1.19,-2.53,2.89
6.269,-0.43,1.24,-2.72,3.02
6.279,-0.21,1.38,-2.72,3.06
6.289,-0.24,1.58,-2.41,2.89
6.299,-0.38,1.77,-2.21,2.86
6.309,-0.55,1.88,-2.06,2.84
6.319,-0.69,2.02,-1.77,2.77
6.329,-0.94,1.95,-1.14,2.44
6.339,-1.17,1.68,-0.48,2.10
6.349,-1.30,1.21,0.47,1.84
6.359,-1.62,0.48,1.84,2.50
6.369,-2.15,-0.26,3.48,4.10
6.380,-2.47,-0.92,4.76,5.44
6.390,-2.46,-1.41,5.52,6.21
6.400,-2.42,-1.64,5.73,6.43
6.410,-2.35,-1.74,5.23,5.99
6.420,-2.02,-1.83,4.29,5.08
6.430,-1.61,-1.76,3.10,3.91
6.440,-1.21,-1.54,1.72,2.61
6.450,-0.79,-1.27,0.42,1.55
6.460,-0.22,-1.08,-0.70,1.31
6.470,0.23,-0.89,-1.50,1.77
6.480,0.52,-0.79,-2.03,2.24
6.490,0.65,-0.79,-2.41,2.62
6.500,0.58,-0.90,-2.83,3.03
6.511,0.50,-0.97,-3.15,3.33
6.520,0.37,-0.96,-3.37,3.53
6.531,0.12,-0.90,-3.65,3.76
6.541,-0.12,-0.85,-4.01,4.11
6.551,-0.42,-0.80,-4.46,4.55
6.561,-0.70,-0.81,-4.82,4.93
6.571,-0.64,-0.81,-4.70,4.81
6.581,-0.30,-0.90,-3.91,4.02
6.591,0.18,-0.97,-2.66,2.84
6.601,0.31,-1.06,-1.04,1.52
6.611,-0.05,-1.25,0.95,1.57
6.621,-0.44,-1.49,2.75,3.16
6.631,-0.60,-1.67,3.94,4.32
6.641,-0.48,-1.56,4.52,4.81
6.652,-0.27,-1.23,4.57,4.74
6.662,0.04,-0.82,3.92,4.00
6.672,0.29,-0.49,2.52,2.58
6.682,0.47,-0.16,1.01,1.13
6.692,0.65,0.03,-0.11,0.66
6.702,0.87,0.03,-0.62,1.07
6.712,1.16,-0.07,-0.36,1.21
6.722,1.27,-0.21,0.32,1.32
6.732,1.16,-0.34,0.83,1.47
6.742,0.91,-0.48,0.98,1.42
6.752,0.45,-0.54,0.90,1.15
6.763,0.01,-0.59,0.65,0.88
6.773,-0.23,-0.60,0.16,0.66
6.783,-0.25,-0.56,-0.30,0.68
6.793,-0.20,-0.42,-0.49,0.68
6.803,-0.13,-0.36,-0.66,0.77
6.813,0.00,-0.31,-0.75,0.81
6.823,0.19,-0.24,-0.74,0.80
6.833,0.30,-0.22,-0.71,0.80
6.843,0.40,-0.27,-0.51,0.70
6.853,0.62,-0.29,-0.07,0.69
6.863,0.91,-0.18,0.36,1.00
6.873,1.26,-0.01,0.48,1.35
6.883,1.67,0.20,0.34,1.71
6.893,1.88,0.51,0.03,1.95
6.904,1.84,0.74,-0.34,2.02
6.914,1.66,0.81,-0.54,1.93
6.924,1.26,0.81,-0.56,1.60
6.934,0.78,0.79,-0.55,1.24
6.944,0.57,0.77,-0.38,1.03
6.954,0.56,0.81,0.06,0.99
6.964,0.58,0.80,0.80,1.27
6.974,0.69,0.75,1.42,1.75
6.984,0.71,0.66,1.58,1.85
6.994,0.77,0.62,1.31,1.64
7.004,0.86,0.54,0.87,1.34
7.014,0.82,0.54,0.81,1.27
7.024,1.01,0.60,0.83,1.44
7.034,1.32,0.71,0.40,1.55
7.045,1.40,0.87,-0.31,1.68
7.055,1.24,0.87,-0.86,1.75
7.065,0.82,0.76,-1.06,1.54
7.075,0.42,0.63,-0.96,1.23
7.085,0.13,0.50,-0.77,0.93
7.095,-0.24,0.39,-0.63,0.78
7.105,-0.51,0.36,-0.55,0.83
7.115,-0.58,0.42,-0.58,0.92
7.125,-0.56,0.47,-0.70,1.01
7.135,-0.55,0.59,-0.83,1.16
7.146,-0.43,0.71,-0.95,1.26
7.156,-0.19,0.72,-1.05,1.28
7.166,-0.09,0.72,-1.17,1.37
7.176,-0.05,0.70,-1.24,1.43
7.186,-0.18,0.53,-1.14,1.28
7.196,-0.40,0.33,-0.85,1.00
7.206,-0.57,0.16,-0.38,0.70
7.216,-0.65,0.03,0.07,0.66
7.226,-0.60,-0.08,0.20,0.64
7.236,-0.52,-0.11,0.05,0.53
7.246,-0.36,-0.00,-0.36,0.51
7.256,-0.23,0.14,-0.76,0.81
7.266,-0.08,0.23,-1.10,1.13
7.276,0.06,0.22,-1.28,1.30
7.287,0.03,0.04,-1.21,1.22
7.297,-0.18,-0.23,-0.82,0.87
7.307,-0.34,-0.58,-0.20,0.70
7.317,-0.46,-0.88,0.53,1.13
7.327,-0.58,-1.12,0.95,1.58
7.337,-0.64,-1.17,1.05,1.70
7.347,-0.61,-0.97,0.69,1.34
7.357,-0.60,-0.82,-0.14,1.02
7.367,-0.53,-0.57,-0.84,1.15
7.377,-0.36,-0.36,-1.10,1.22
7.387,-0.20,-0.20,-0.97,1.01
7.397,-0.09,-0.07,-0.62,0.63
7.407,0.09,-0.02,-0.20,0.21
7.417,0.19,-0.05,0.13,0.23
7.428,0.10,-0.08,0.37,0.39
7.438,-0.04,-0.20,0.62,0.65
7.448,0.14,-0.21,0.62,0.67
7.458,0.48,-0.06,0.36,0.60
7.468,0.81,0.11,0.15,0.83
7.478,0.72,0.30,0.22,0.81
7.488,0.55,0.51,0.39,0.84
7.498,0.50,0.68,0.68,1.08
7.508,0.56,0.80,0.92,1.34
7.518,0.58,0.86,1.04,1.47
7.528,0.61,0.93,1.14,1.59
7.538,0.68,0.77,1.24,1.61
7.549,0.56,0.56,1.48,1.68
7.559,0.19,0.43,1.76,1.82
7.569,-0.06,-0.01,1.87,1.87
7.579,-0.33,-0.45,1.73,1.81
7.589,-0.56,-0.67,1.78,1.98
7.599,-0.62,-0.66,1.91,2.11
7.609,-0.26,-0.55,1.67,1.77
7.619,0.30,-0.20,1.06,1.12
7.629,0.79,0.17,0.10,0.81
7.639,0.99,0.46,-0.88,1.40
7.649,0.93,0.54,-1.57,1.90
7.659,0.78,0.44,-1.99,2.18
7.670,0.62,0.32,-2.36,2.46
7.680,0.53,0.22,-2.69,2.75
7.690,0.36,0.20,-2.75,2.79
7.700,0.14,0.24,-2.55,2.57
7.710,0.02,0.28,-2.30,2.32
7.720,-0.03,0.31,-2.13,2.15
7.730,-0.04,0.39,-2.21,2.24
7.740,0.06,0.54,-2.62,2.68
7.750,0.00,0.66,-3.14,3.21
7.760,-0.17,0.63,-3.43,3.49
7.770,-0.22,0.51,-3.33,3.38
7.780,-0.19,0.40,-2.83,2.86
7.790,-0.33,0.34,-1.93,1.99
7.801,-0.39,0.13,-0.77,0.87
7.811,-0.29,-0.14,0.60,0.68
7.821,-0.39,-0.20,1.82,1.87
7.831,-0.32,-0.09,2.28,2.31
7.841,-0.12,-0.03,2.08,2.08
7.851,-0.09,0.07,1.52,1.52
7.861,-0.07,0.22,0.82,0.85
7.871,0.11,0.28,0.16,0.34
7.881,0.28,0.45,-0.27,0.60
7.891,0.30,0.63,-0.30,0.76
7.901,0.34,0.63,0.10,0.72
7.911,0.61,0.45,0.35,0.84
7.921,0.44,0.19,0.31,0.57
7.931,0.10,0.25,0.92,0.96
7.942,0.59,0.35,0.83,1.08
7.952,0.72,0.48,0.40,0.95
7.962,0.74,0.75,-0.22,1.07
7.972,0.70,0.98,-0.82,1.46
7.982,0.39,1.07,-1.04,1.54
7.992,0.05,1.19,-1.16,1.66
8.002,-0.31,1.27,-1.33,1.87
8.012,-0.63,1.32,-1.54,2.12
8.022,-0.92,1.40,-1.81,2.47
8.032,-1.16,1.55,-2.07,2.84
8.042,-1.41,1.74,-2.03,3.02
8.052,-1.67,1.82,-1.65,2.97
8.063,-1.55,1.70,-1.25,2.62
8.073,-1.47,1.48,-0.77,2.23
8.083,-1.26,1.43,-0.52,1.98
8.093,-0.76,1.50,-0.60,1.79
8.103,-0.26,1.29,-0.71,1.50
8.113,-0.03,0.68,-0.81,1.06
8.123,-0.48,0.07,-0.62,0.79
8.133,-1.15,-0.46,-0.17,1.25
8.143,-1.54,-0.89,0.28,1.80
8.153,-1.64,-1.11,0.64,2.08
8.163,-1.48,-1.28,0.97,2.19
8.173,-1.34,-1.40,1.39,2.38
8.183,-1.36,-1.66,1.71,2.74
8.194,-1.38,-2.13,1.56,2.98
8.204,-1.38,-2.36,1.05,2.93
8.214,-1.32,-2.28,0.49,2.68
8.224,-1.08,-2.23,0.03,2.48
8.234,-0.72,-2.15,-0.42,2.31
8.244,-0.42,-2.02,-0.84,2.22
8.254,-0.20,-1.94,-1.25,2.31
8.264,-0.02,-1.85,-1.77,2.56
8.274,0.15,-1.80,-2.13,2.80
8.284,0.19,-1.87,-2.13,2.84
8.294,0.11,-2.07,-1.59,2.62
8.304,-0.03,-2.38,-0.60,2.45
8.315,-0.10,-2.68,0.58,2.75
8.325,-0.03,-2.79,1.94,3.40
8.335,0.29,-2.70,3.08,4.11
8.345,0.89,-2.47,3.81,4.63
8.355,1.45,-2.26,4.02,4.83
8.365,1.75,-2.03,3.86,4.70
8.375,1.68,-1.76,3.56,4.31
8.385,1.39,-1.63,3.36,3.99
8.395,1.35,-1.42,3.21,3.76
8.405,1.27,-1.31,3.10,3.60
8.415,0.84,-1.63,3.09,3.59
8.425,0.46,-1.93,2.90,3.52
8.435,0.28,-1.82,2.40,3.02
8.446,0.39,-1.35,1.65,2.17
8.456,0.84,-0.64,0.73,1.28
8.466,1.40,0.06,-0.08,1.40
8.476,1.73,0.52,-0.42,1.85
8.486,1.63,0.73,-0.02,1.79
8.496,1.34,0.69,1.00,1.80
8.506,0.91,0.26,1.92,2.14
8.516,0.29,-0.32,1.82,1.87
8.526,-0.63,-0.43,1.00,1.26
8.536,-1.80,0.16,0.14,1.81
8.546,-2.73,0.92,-0.77,2.98
8.556,-2.73,1.37,-1.49,3.40
8.567,-2.13,1.99,-1.87,3.46
8.577,-1.75,2.72,-1.95,3.78
8.587,-1.61,3.26,-1.77,4.04
8.597,-1.26,3.60,-1.36,4.05
8.607,-1.08,3.73,-0.83,3.97
8.617,-0.89,3.79,-0.19,3.90
8.627,-0.65,4.09,0.54,4.18
8.637,-0.10,4.79,1.75,5.10
8.647,-0.11,4.50,2.89,5.35
8.657,-0.52,3.93,3.61,5.36
8.667,-1.35,3.48,3.62,5.20
8.677,-2.06,3.29,2.66,4.71
8.687,-2.18,3.07,1.54,4.07
8.698,-1.91,2.71,0.60,3.37
8.708,-1.22,2.42,0.18,2.72
8.718,-0.40,1.93,0.17,1.98
8.728,0.06,1.32,0.37,1.38
8.738,0.22,0.71,0.47,0.87
8.748,0.21,0.09,0.30,0.38
8.758,0.04,-0.55,0.01,0.56
8.768,-0.31,-1.02,-0.24,1.09
8.778,-0.81,-1.55,-0.52,1.82
8.788,-1.49,-2.10,-0.79,2.69
8.798,-2.20,-2.44,-1.25,3.51
8.808,-2.79,-2.64,-1.90,4.28
8.818,-3.21,-2.61,-2.40,4.78
8.829,-2.93,-2.51,-2.64,4.67
8.839,-2.18,-2.31,-2.69,4.17
8.849,-1.48,-2.14,-2.68,3.73
8.859,-0.92,-2.08,-2.94,3.72
8.869,-0.58,-2.03,-3.42,4.02
8.879,-0.54,-2.15,-3.78,4.38
8.889,-0.59,-2.23,-3.82,4.46
8.899,-0.48,-2.21,-3.62,4.27
8.909,-0.52,-2.19,-3.26,3.97
8.919,-0.66,-2.26,-2.45,3.40
8.929,-0.78,-2.45,-1.34,2.90
8.939,-1.00,-2.52,-0.20,2.72
8.950,-1.11,-2.52,0.69,2.84
8.960,-1.07,-2.52,1.26,3.01
8.970,-0.81,-2.22,1.59,2.85
8.980,-0.34,-1.79,1.72,2.51
8.990,0.13,-1.41,1.58,2.12
9.000,0.57,-1.21,1.40,1.94
9.010,0.67,-1.15,1.56,2.05
9.020,0.49,-1.23,1.72,2.17
9.030,0.44,-1.37,1.65,2.18
9.040,0.39,-1.43,1.41,2.04
9.050,0.38,-1.39,1.10,1.81
9.060,0.60,-1.32,0.68,1.60
9.070,0.81,-1.19,0.16,1.45
9.080,0.69,-1.05,-0.49,1.35
9.090,0.35,-0.92,-1.02,1.42
9.101,0.12,-0.92,-1.18,1.50
9.111,0.19,-1.15,-0.88,1.47
9.121,0.43,-1.39,-0.18,1.47
9.131,0.58,-1.55,0.58,1.75
9.141,0.70,-1.62,1.16,2.11
9.151,0.92,-1.57,1.32,2.25
9.161,1.00,-1.51,1.25,2.20
9.171,0.95,-1.48,1.16,2.11
9.181,0.87,-1.46,1.09,2.02
9.191,0.86,-1.41,0.92,1.89
9.201,0.99,-1.33,0.70,1.80
9.211,1.15,-1.15,0.45,1.69
9.222,1.58,-0.80,0.10,1.77
9.232,2.32,-0.48,0.13,2.37
9.242,2.85,-0.14,0.83,2.98
9.252,3.09,0.09,1.70,3.52
9.262,3.35,0.23,2.50,4.18
9.272,3.55,0.50,3.12,4.76
9.282,3.50,0.76,3.42,4.95
9.292,3.48,1.01,3.33,4.92
9.302,3.28,1.23,3.06,4.66
9.312,2.76,1.44,2.53,4.02
9.322,2.11,1.52,1.96,3.26
9.332,1.41,1.53,1.76,2.72
9.342,1.15,1.53,2.08,2.83
9.353,1.33,1.68,2.73,3.47
9.363,1.57,1.75,3.03,3.84
9.373,1.71,1.78,2.71,3.66
9.383,1.43,1.90,1.71,2.92
9.393,0.84,2.09,0.43,2.29
9.403,0.35,2.40,-0.85,2.57
9.413,-0.02,2.74,-2.03,3.41
9.423,-0.52,3.00,-2.93,4.23
9.433,-1.12,3.15,-3.53,4.86
9.443,-1.70,3.07,-3.88,5.23
9.453,-2.24,2.85,-3.91,5.33
9.463,-2.67,2.55,-3.70,5.23
9.473,-2.87,2.24,-3.37,4.96
9.484,-2.95,1.86,-3.04,4.62
9.494,-2.82,1.42,-2.73,4.17
9.504,-2.73,0.98,-2.59,3.89
9.514,-2.87,0.50,-2.62,3.92
9.524,-3.04,0.01,-2.60,4.00
9.534,-3.19,-0.39,-2.49,4.06
9.544,-3.05,-0.63,-2.54,4.02
9.554,-2.76,-0.62,-2.54,3.80
9.564,-2.38,-0.60,-2.23,3.32
9.574,-1.94,-0.72,-1.61,2.62
9.584,-1.63,-0.95,-0.87,2.08
9.594,-1.43,-1.14,-0.13,1.83
9.604,-1.31,-1.28,0.50,1.90
9.615,-1.26,-1.49,0.97,2.18
9.625,-1.22,-1.65,1.18,2.37
9.635,-1.04,-1.68,1.25,2.34
9.645,-0.64,-1.62,1.16,2.09
9.655,-0.20,-1.62,1.10,1.96
9.665,0.05,-1.76,1.06,2.06
9.675,0.24,-2.00,0.94,2.22
9.685,0.45,-2.31,0.82,2.49
9.695,0.49,-2.50,0.52,2.60
9.705,0.57,-2.60,0.12,2.66
9.715,0.73,-2.53,-0.26,2.64
9.725,0.98,-2.34,-0.52,2.60
9.736,1.18,-2.34,-0.46,2.66
9.746,1.43,-2.27,0.28,2.70
9.756,1.87,-2.12,1.22,3.08
9.766,2.43,-1.98,1.95,3.69
9.776,2.85,-1.55,2.22,3.93
9.786,3.37,-0.87,1.66,3.85
9.796,3.71,-0.47,0.86,3.84
9.806,3.41,-0.26,0.61,3.47
9.816,4.53,1.32,0.70,4.77
9.826,4.66,0.84,0.69,4.79
9.836,4.28,0.83,0.77,4.43
9.846,3.85,1.06,0.92,4.10
9.856,2.89,0.93,1.11,3.23
9.867,2.00,1.04,1.08,2.50
9.877,1.27,1.38,0.73,2.01
9.887,0.74,1.75,0.20,1.92
9.897,0.37,2.23,-0.54,2.33
9.907,-0.01,2.68,-1.28,2.97
9.917,-0.19,2.87,-1.59,3.29
9.927,0.00,2.92,-1.09,3.12
9.937,0.44,2.82,-0.20,2.86
9.947,0.99,2.65,0.47,2.86
9.957,1.40,2.29,0.74,2.78
9.967,1.37,1.87,0.61,2.40
9.977,0.90,1.39,-0.13,1.66
9.987,0.38,0.38,-1.68,1.76
9.998,-0.92,0.56,-1.89,2.17
10.008,-2.25,0.69,-1.57,2.83
10.018,-2.44,-0.07,-1.86,3.07
10.028,-2.32,-0.58,-2.30,3.32
10.038,-2.47,-0.56,-2.47,3.53
10.048,-2.31,-0.27,-2.55,3.46
10.058,-2.11,-0.16,-2.50,3.27
10.068,-1.83,-0.06,-2.26,2.91
10.078,-1.48,0.31,-1.98,2.49
10.088,-1.27,0.48,-1.89,2.33
10.098,-1.21,0.48,-1.96,2.35
10.108,-0.74,1.39,-1.42,2.12
10.119,-0.32,1.38,-1.26,1.89
10.129,0.53,1.11,-0.87,1.51
10.139,0.52,1.31,-0.16,1.42
10.149,-1.48,2.10,3.60,4.42
10.159,-1.83,1.88,4.19,4.94
10.169,-1.42,0.57,3.90,4.19
10.179,-0.86,-0.00,3.66,3.77
10.189,-1.11,0.17,3.89,4.05
10.199,-1.34,-0.08,3.48,3.73
10.209,-1.52,-0.26,2.61,3.03
10.219,-1.94,-0.27,1.51,2.48
10.230,-2.45,-0.20,0.39,2.49
10.240,-2.78,-0.16,-0.57,2.84
10.250,-2.99,-0.19,-1.38,3.30
10.260,-3.22,-0.20,-2.00,3.79
10.270,-3.53,-0.17,-2.64,4.42
10.280,-3.87,0.07,-3.41,5.16
10.290,-4.31,0.20,-4.43,6.19
10.300,-4.68,0.20,-5.60,7.30
10.310,-5.06,0.15,-6.49,8.23
10.320,-5.42,-0.02,-6.96,8.82
10.330,-5.66,-0.14,-6.87,8.90
10.340,-5.77,-0.15,-6.39,8.61
10.350,-5.70,0.00,-5.52,7.93
10.360,-5.13,0.11,-4.42,6.77
10.370,-4.12,0.10,-2.92,5.05
10.381,-2.63,-0.27,-1.16,2.89
10.391,-0.78,-0.83,0.93,1.48
10.401,1.45,-1.42,3.13,3.73
10.411,3.69,-1.75,5.18,6.60
10.421,5.31,-1.85,6.79,8.82
10.431,6.08,-2.08,7.95,10.22
10.441,5.91,-2.38,8.37,10.52
10.451,5.35,-2.55,7.99,9.95
10.461,4.74,-2.59,7.29,9.07
10.471,4.26,-2.46,6.29,7.99
10.481,4.16,-2.15,5.20,6.99
10.491,4.09,-1.97,4.47,6.37
10.502,3.70,-2.05,4.05,5.86
10.512,3.03,-2.29,3.54,5.19
10.522,2.94,-1.61,2.58,4.23
10.532,2.69,-1.29,1.43,3.30
10.542,1.85,-1.41,0.33,2.35
10.552,1.09,-1.26,-0.68,1.80
10.562,0.49,-1.04,-1.65,2.02
10.572,0.36,-0.83,-2.20,2.38
10.582,0.29,-0.61,-2.23,2.33
10.592,0.38,-0.34,-2.04,2.11
10.602,0.53,-0.12,-1.72,1.80
10.612,0.77,0.13,-1.27,1.49
10.622,1.18,0.63,-0.64,1.49
10.633,1.87,1.21,-0.14,2.23
10.643,2.56,1.67,0.51,3.10
10.653,3.07,2.06,1.12,3.86
10.663,3.37,2.35,1.73,4.45
10.673,3.46,2.47,2.47,4.92
10.683,3.48,2.39,3.12,5.25
10.693,3.35,2.13,3.55,5.33
10.703,2.96,1.74,3.71,5.05
10.713,2.21,1.41,3.57,4.43
10.723,1.48,0.98,3.05,3.53
10.733,0.78,0.54,2.50,2.68
10.743,0.08,-0.04,1.89,1.89
10.753,-0.52,-0.57,1.11,1.35
10.764,-1.01,-1.09,0.42,1.54
10.774,-1.41,-1.63,0.04,2.15
10.784,-1.76,-2.04,-0.20,2.71
10.794,-2.09,-2.32,-0.41,3.14
10.804,-2.43,-2.46,-0.45,3.48
10.814,-2.83,-2.28,-0.56,3.68
10.824,-3.26,-1.89,-0.94,3.88
10.834,-3.87,-1.66,-1.47,4.46
10.844,-4.71,-1.45,-2.21,5.41
10.854,-5.59,-1.26,-3.02,6.47
10.864,-6.20,-1.11,-3.73,7.32
10.874,-6.56,-0.93,-4.27,7.88
10.885,-6.57,-0.82,-4.65,8.09
10.895,-6.41,-0.75,-4.85,8.07
10.905,-6.36,-0.80,-5.02,8.14
10.915,-6.53,-0.71,-5.21,8.38
10.925,-6.52,-0.38,-5.34,8.43
10.935,-6.67,-0.13,-5.17,8.44
10.945,-6.97,0.52,-4.73,8.44
10.955,-7.05,0.91,-4.05,8.18
10.965,-5.99,1.64,-2.04,6.54
10.975,-3.09,2.78,1.18,4.32
10.985,0.68,3.93,5.05,6.44
10.995,4.09,4.84,8.74,10.79
11.005,6.59,5.35,11.05,13.93
11.015,7.80,5.57,11.65,15.09
11.026,8.16,5.44,10.96,14.71
11.036,8.15,4.63,9.16,13.10
11.046,7.34,3.61,7.16,10.88
11.056,6.37,2.60,5.60,8.87
11.066,5.03,1.36,4.37,6.80
11.076,3.55,-0.06,3.33,4.87
11.086,2.10,-1.44,2.30,3.42
11.096,0.56,-2.66,0.97,2.88
11.106,-0.69,-3.48,-0.68,3.61
11.116,-0.83,-2.62,-2.60,3.78
11.126,-1.52,-2.09,-5.67,6.24
11.136,-4.17,-3.43,-9.23,10.69
11.147,-7.06,-4.67,-11.53,14.31
11.157,-8.94,-5.03,-12.80,16.40
11.167,-7.66,-4.46,-13.13,15.84
11.177,-3.36,-3.23,-9.29,10.40
11.187,2.88,-1.91,-0.50,3.49
11.197,9.92,-1.96,7.28,12.46
11.207,14.34,-2.30,11.58,18.58
11.217,15.80,-2.04,14.52,21.56
11.227,14.11,-2.38,13.69,19.80
11.237,11.91,-3.16,10.76,16.36
11.247,9.61,-3.48,7.65,12.77
11.257,6.52,-2.85,5.23,8.83
11.267,3.65,-2.58,3.03,5.40
11.277,2.44,-3.54,0.98,4.41
11.288,2.36,-4.57,-0.05,5.15
11.298,2.31,-4.89,-0.40,5.42
11.308,2.44,-5.18,-0.71,5.77
11.318,2.47,-5.56,-1.22,6.21
11.328,1.93,-5.76,-2.00,6.40
11.338,0.36,-6.19,-2.83,6.82
11.348,-1.45,-6.60,-4.22,7.96
11.358,-3.42,-7.03,-6.00,9.86
11.368,-5.27,-7.28,-6.71,11.22
11.378,-6.13,-7.55,-6.64,11.78
11.388,-5.90,-7.68,-6.20,11.50
11.398,-5.03,-7.47,-6.00,10.83
11.408,-3.30,-7.24,-6.08,10.01
11.419,-1.44,-6.80,-6.34,9.41
11.429,-0.07,-6.53,-6.91,9.51
11.439,1.07,-6.70,-7.30,9.97
11.449,2.18,-6.70,-5.68,9.05
11.459,4.53,-5.46,-1.90,7.34
11.469,8.91,-3.80,2.29,9.96
11.479,13.91,-2.19,6.99,15.72
11.489,17.66,-0.56,11.42,21.04
11.499,18.08,0.68,13.74,22.72
11.509,15.43,0.77,12.67,19.99
11.519,11.89,0.42,9.71,15.36
11.529,9.23,0.30,6.38,11.22
11.539,7.92,-0.03,3.94,8.85
11.550,7.15,-0.44,3.28,7.87
11.560,6.37,-0.94,3.36,7.26
11.570,5.68,-1.35,3.16,6.64
11.580,4.99,-1.61,2.69,5.89
11.590,4.00,-1.39,1.98,4.67
11.600,2.75,-0.92,1.14,3.12
11.610,1.10,-0.47,0.41,1.27
11.620,-0.89,0.02,-0.11,0.90
11.630,-2.32,0.54,-0.09,2.38
11.640,-3.33,1.26,0.42,3.59
11.650,-3.75,2.01,0.81,4.33
11.660,-3.44,2.82,1.45,4.68
11.671,-2.99,3.61,2.18,5.17
11.681,-2.84,4.31,2.64,5.79
11.691,-2.95,5.13,2.88,6.58
11.701,-3.19,5.75,3.49,7.44
11.711,-3.77,6.26,4.53,8.60
11.721,-4.40,7.10,5.24,9.86
11.731,-5.13,8.07,5.38,10.97
11.741,-5.93,9.00,5.16,11.95
11.751,-6.61,9.81,4.98,12.84
11.761,-7.08,10.34,5.43,13.66
11.771,-7.43,10.46,6.23,14.26
11.781,-7.88,10.03,7.04,14.57
11.791,-8.45,9.32,7.71,14.75
11.802,-8.96,8.60,7.78,14.65
11.812,-9.30,7.83,7.41,14.24
11.822,-9.26,7.13,6.75,13.49
11.832,-8.95,6.57,5.86,12.56
11.842,-8.24,6.02,5.08,11.40
11.852,-7.37,5.21,4.29,9.99
11.862,-6.54,4.29,3.87,8.73
11.872,-6.24,3.37,4.18,8.23
11.882,-6.41,2.48,4.43,8.18
11.892,-6.83,1.65,4.00,8.09
11.902,-7.49,1.01,3.11,8.17
11.912,-7.83,0.85,2.12,8.16
11.923,-6.99,0.82,1.48,7.19
11.933,-5.86,0.48,1.05,5.97
11.943,-4.77,0.08,0.47,4.79
11.953,-3.99,-0.45,-0.38,4.03
11.963,-3.66,-1.15,-1.50,4.12
11.973,-3.81,-1.65,-2.62,4.91
11.983,-4.15,-1.54,-3.53,5.67
11.993,-3.42,-1.14,-3.50,5.03
12.003,-0.06,-1.22,-1.16,1.68
12.013,5.24,-1.15,2.64,5.97
12.023,10.40,-1.05,7.08,12.62
12.034,14.39,-0.73,10.66,17.92
12.043,16.24,-0.41,11.48,19.89
12.054,15.26,-0.09,9.64,18.05
12.064,12.41,0.03,6.67,14.08
12.074,9.38,0.11,3.99,10.19
12.084,6.91,-0.08,2.05,7.21
12.094,5.23,0.01,0.95,5.32
12.104,4.48,0.37,0.39,4.51
12.114,4.35,0.57,0.32,4.40
12.124,4.48,0.58,0.40,4.53
12.134,4.32,0.40,0.59,4.38
12.144,3.81,0.11,0.36,3.82
12.154,2.90,0.20,-0.77,3.01
12.164,1.72,0.28,-2.11,2.74
12.174,0.61,0.28,-3.23,3.30
12.185,-0.36,0.61,-4.30,4.36
12.195,-1.64,0.71,-5.23,5.52
12.205,-2.95,0.75,-5.98,6.71
12.215,-3.91,0.91,-6.66,7.78
12.225,-4.69,1.13,-7.24,8.70
12.235,-5.22,1.32,-7.67,9.36
12.245,-5.58,1.26,-7.62,9.53
12.255,-5.78,1.03,-7.09,9.21
12.265,-5.87,0.63,-6.51,8.78
12.275,-5.65,0.44,-6.00,8.25
12.285,-5.42,0.74,-5.38,7.67
12.295,-4.87,1.26,-4.48,6.74
12.305,-3.64,2.19,-2.82,5.10
12.316,-1.57,3.28,-0.37,3.65
12.326,1.33,4.40,2.61,5.29
12.336,4.37,5.35,6.03,9.18
12.346,6.99,5.71,8.83,12.62
12.356,8.57,5.53,10.04,14.31
12.366,8.57,4.78,9.51,13.66
12.376,6.92,3.65,7.50,10.84
12.386,4.72,2.61,5.12,7.43
12.396,2.87,1.65,3.36,4.71
12.406,1.35,0.76,2.02,2.55
12.416,0.33,0.01,1.12,1.17
12.426,-0.45,-0.80,0.87,1.27
12.436,-1.16,-1.59,1.00,2.20
12.446,-1.57,-2.27,1.25,3.03
12.457,-1.87,-2.71,1.23,3.52
12.467,-2.30,-3.23,0.96,4.07
12.477,-2.63,-3.50,0.32,4.39
12.487,-3.16,-3.69,-0.40,4.88
12.497,-3.88,-4.00,-1.20,5.70
12.507,-4.68,-4.41,-2.06,6.76
12.517,-5.42,-4.79,-2.65,7.71
12.527,-6.12,-5.08,-2.91,8.47
12.537,-6.85,-5.30,-3.16,9.22
12.547,-7.68,-5.55,-3.45,10.08
12.557,-8.57,-5.95,-3.69,11.07
12.568,-9.57,-6.49,-3.85,12.19
12.578,-10.63,-7.09,-4.01,13.39
12.588,-11.48,-7.69,-4.01,14.39
12.598,-11.87,-8.26,-3.88,14.98
12.608,-11.77,-8.76,-3.52,15.09
12.618,-11.17,-9.04,-2.59,14.60
12.628,-9.77,-8.86,-1.04,13.23
12.638,-7.64,-8.43,0.50,11.39
12.648,-4.94,-8.15,2.02,9.74
12.658,-1.94,-7.77,3.76,8.85
12.668,0.36,-7.09,5.31,8.86
12.678,1.02,-6.38,5.97,8.80
12.689,1.39,-5.85,6.61,8.94
12.699,2.80,-5.82,8.10,10.36
12.709,4.86,-5.55,8.91,11.57
12.719,7.95,-4.67,9.26,13.06
12.729,11.68,-4.03,9.89,15.83
12.739,14.31,-3.07,10.11,17.79
12.749,15.29,-2.60,10.86,18.93
12.759,14.92,-2.87,11.19,18.87
12.769,13.60,-3.05,9.79,17.04
12.779,12.85,-2.92,8.05,15.44
12.789,12.14,-2.37,6.45,13.95
12.799,10.87,-1.73,4.48,11.89
12.809,9.91,-1.53,2.95,10.45
12.820,8.34,-1.59,2.05,8.73
12.830,6.64,-1.74,1.31,6.99
12.840,5.04,-2.14,0.78,5.53
12.850,3.49,-2.41,0.39,4.26
12.860,2.40,-2.48,0.17,3.45
12.870,1.94,-2.49,0.21,3.16
12.880,1.67,-2.38,0.30,2.93
12.890,1.51,-2.11,0.19,2.60
12.900,1.40,-1.91,-0.14,2.37
12.910,1.10,-1.80,-0.78,2.25
12.920,0.63,-1.54,-1.49,2.24
12.930,0.05,-1.08,-2.17,2.43
12.940,-0.03,-0.44,-2.29,2.33
12.950,0.67,0.31,-1.36,1.54
12.961,1.56,1.12,-0.47,1.98
12.971,2.56,1.89,-0.08,3.19
12.981,3.67,2.79,0.20,4.61
12.991,4.76,3.82,0.46,6.12
13.001,5.33,4.38,0.88,6.95
13.011,5.14,4.68,1.37,7.08
13.021,4.52,5.20,1.45,7.04
13.031,4.29,5.87,1.33,7.39
13.041,4.22,6.37,1.62,7.81
13.051,4.28,6.82,2.15,8.33
13.061,4.54,7.02,3.14,8.93
13.071,4.28,6.98,4.06,9.14
13.082,3.51,7.00,4.14,8.86
13.092,2.95,7.01,4.06,8.61
13.102,2.38,7.20,3.61,8.40
13.112,2.15,7.73,2.90,8.53
13.122,2.48,8.47,2.31,9.12
13.132,3.02,8.98,1.76,9.64
13.142,3.70,9.39,1.18,10.16
13.152,4.51,9.65,0.58,10.67
13.162,4.98,9.79,-0.41,10.99
13.172,4.82,9.73,-1.41,10.95
13.182,3.75,9.16,-2.17,10.14
13.192,2.32,8.35,-2.55,9.03
13.202,1.47,7.22,-2.22,7.69
13.213,1.33,5.75,-1.00,5.99
13.223,1.40,3.93,0.55,4.20
13.233,1.40,1.86,2.09,3.13
13.243,1.32,-0.17,3.33,3.58
13.253,0.94,-2.03,4.05,4.63
13.263,0.36,-3.77,3.93,5.46
13.273,-0.23,-5.20,3.24,6.13
13.283,-0.38,-6.27,2.59,6.80
13.293,-0.31,-6.97,2.41,7.38
13.303,-0.47,-7.47,2.55,7.90
13.313,-1.02,-8.02,2.38,8.43
13.323,-1.81,-8.64,2.01,9.05
13.334,-2.71,-9.04,1.58,9.57
13.343,-3.54,-9.35,1.02,10.05
13.354,-4.46,-9.47,0.41,10.47
13.364,-5.56,-9.29,-0.44,10.84
13.374,-6.58,-9.10,-1.76,11.36
13.384,-7.39,-8.79,-3.28,11.94
13.394,-7.74,-8.40,-4.67,12.34
13.404,-7.76,-8.10,-5.91,12.68
13.414,-7.13,-8.18,-6.93,12.87
13.424,-5.60,-8.44,-7.15,12.40
13.434,-3.37,-8.37,-6.68,11.22
13.444,-0.47,-8.25,-5.85,10.12
13.454,3.37,-7.99,-4.60,9.82
13.464,7.21,-7.11,-1.85,10.29
13.475,9.75,-6.08,2.76,11.82
13.485,10.85,-5.16,8.09,14.49
13.495,11.17,-4.45,12.94,17.66
13.505,11.37,-3.93,16.10,20.10
13.515,10.98,-3.61,17.58,21.04
13.525,10.14,-3.16,17.55,20.51
13.535,9.49,-2.83,16.37,19.14
13.545,8.44,-3.04,14.07,16.69
13.555,6.82,-3.46,10.60,13.07
13.565,5.29,-3.38,6.60,9.11
13.575,4.19,-3.19,2.85,5.99
13.585,3.70,-3.08,-0.12,4.81
13.596,3.36,-3.00,-2.11,4.97
13.606,2.88,-3.03,-3.58,5.51
13.616,2.18,-3.27,-4.86,6.25
13.626,1.03,-3.69,-5.77,6.93
13.636,-0.21,-4.32,-6.12,7.50
13.646,-1.22,-5.33,-5.94,8.07
13.656,-1.99,-6.56,-5.49,8.78
13.666,-2.63,-7.65,-5.11,9.57
13.676,-2.91,-8.84,-5.19,10.65
13.686,-2.50,-9.64,-5.38,11.32
13.696,-1.16,-10.21,-4.88,11.38
13.706,1.65,-10.41,-2.85,10.92
13.716,4.78,-9.88,0.00,10.98
13.727,7.66,-8.82,3.25,12.12
13.737,9.68,-6.98,5.89,13.31
13.747,10.69,-5.18,7.84,14.24
13.757,10.80,-3.90,9.11,14.66
13.767,9.72,-2.73,9.55,13.90
13.777,7.43,-2.05,9.56,12.28
13.787,4.89,-1.37,8.91,10.25
13.797,2.76,-0.55,7.75,8.25
13.807,1.70,0.53,6.31,6.56
13.817,1.23,1.70,4.83,5.26
13.827,1.17,2.85,3.54,4.69
13.837,1.25,4.02,2.60,4.95
13.847,1.54,4.97,2.34,5.71
13.857,2.43,5.85,2.77,6.92
13.868,3.71,6.88,3.53,8.57
13.878,4.82,7.62,4.86,10.24
13.888,5.19,8.28,6.43,11.70
13.898,4.72,9.00,7.67,12.73
13.908,3.70,9.58,8.44,13.29
13.918,2.09,10.02,8.51,13.31
13.928,0.29,10.42,8.11,13.21
13.938,-1.32,10.87,7.46,13.25
13.948,-2.59,11.35,6.80,13.48
13.958,-3.85,11.52,6.43,13.75
13.968,-4.99,11.47,6.48,14.09
13.979,-6.07,11.30,6.71,14.48
13.989,-7.07,11.00,6.85,14.76
13.999,-7.89,10.60,6.90,14.91
14.009,-8.56,10.02,6.77,14.82
14.019,-9.11,9.43,6.45,14.61
14.029,-9.23,8.85,6.15,14.19
14.039,-9.02,8.46,5.87,13.69
14.049,-8.38,8.23,5.62,13.02
14.059,-7.52,7.98,5.48,12.26
14.069,-6.75,7.55,5.07,11.33
14.079,-6.05,6.58,4.71,10.10
14.089,-5.79,5.31,4.84,9.22
14.099,-5.88,3.70,5.19,8.67
14.109,-5.66,2.00,5.78,8.34
14.120,-5.40,0.71,6.39,8.40
14.130,-4.96,-0.48,6.31,8.04
14.140,-4.66,-1.81,5.60,7.50
14.150,-4.49,-2.97,4.61,7.09
14.160,-4.37,-3.84,3.39,6.73
14.170,-4.29,-4.45,2.11,6.53
14.180,-4.16,-4.92,0.72,6.49
14.190,-4.13,-5.18,-0.74,6.66
14.200,-4.07,-5.13,-2.07,6.87
14.210,-3.68,-4.81,-3.50,6.99
14.220,-3.29,-4.28,-5.09,7.42
14.230,-3.56,-3.59,-6.87,8.53
14.241,-4.51,-2.85,-8.25,9.83
14.251,-6.20,-2.30,-9.14,11.28
14.261,-7.50,-2.50,-9.40,12.28
14.271,-7.57,-3.42,-8.14,11.63
14.281,-6.07,-5.23,-4.61,9.24
14.291,-3.07,-7.11,0.75,7.78
14.301,1.33,-7.65,7.69,10.93
14.311,7.00,-7.55,14.09,17.45
14.321,11.52,-6.22,17.07,21.51
14.331,13.34,-3.74,15.23,20.59
14.341,13.56,-1.49,11.11,17.60
14.351,13.60,0.10,7.67,15.61
14.362,13.64,1.11,6.86,15.30
14.372,12.93,1.02,8.75,15.65
14.382,11.71,0.55,10.75,15.91
14.392,10.36,0.07,10.89,15.03
14.402,8.83,-0.12,9.49,12.96
14.412,7.56,0.24,6.88,10.22
14.422,6.55,0.65,4.15,7.78
14.432,5.12,0.98,1.61,5.45
14.442,3.20,1.50,-0.75,3.61
14.452,1.58,2.07,-2.79,3.81
14.462,0.49,2.72,-4.17,5.00
14.472,-0.04,3.38,-4.84,5.91
14.483,-0.27,4.08,-4.98,6.44
14.492,-0.38,4.65,-4.87,6.74
14.503,-0.29,4.89,-4.42,6.60
14.513,0.07,5.02,-3.62,6.19
14.523,0.75,4.97,-2.61,5.66
14.533,1.53,4.74,-1.57,5.23
14.543,2.27,4.51,-0.89,5.12
14.553,2.99,4.27,-0.59,5.25
14.563,3.31,3.99,-0.56,5.21
14.573,3.32,3.51,-0.59,4.87
14.583,3.51,2.95,-0.29,4.59
14.593,3.77,2.13,0.50,4.35
14.603,4.01,1.13,1.39,4.39
14.613,3.93,0.04,2.30,4.56
14.623,3.75,-0.90,2.66,4.69
14.634,3.33,-2.04,2.44,4.61
14.644,2.48,-3.36,1.61,4.48
14.654,1.44,-4.52,0.67,4.79
14.664,0.51,-5.39,-0.29,5.42
14.674,-0.29,-6.13,-1.18,6.25
14.684,-1.27,-6.65,-1.64,6.97
14.694,-1.96,-7.14,-1.91,7.65
14.704,-2.46,-7.43,-2.27,8.15
14.714,-2.97,-7.59,-2.40,8.50
14.724,-3.53,-7.80,-2.33,8.87
14.734,-4.18,-8.01,-2.40,9.35
14.745,-4.96,-8.10,-2.39,9.80
14.755,-5.85,-8.17,-2.22,10.29
14.765,-6.85,-8.37,-2.18,11.03
14.775,-7.96,-8.48,-2.15,11.83
14.785,-8.90,-8.51,-2.10,12.49
14.795,-9.30,-8.62,-2.29,12.89
14.805,-9.24,-8.65,-2.59,12.92
14.815,-8.68,-8.68,-2.40,12.51
14.825,-7.87,-8.80,-1.82,11.95
14.835,-7.02,-9.07,-1.31,11.54
14.845,-6.15,-9.27,-1.02,11.17
14.855,-5.47,-9.53,-0.77,11.02
14.865,-4.90,-10.00,-0.39,11.14
14.876,-4.55,-10.50,0.15,11.45
14.886,-4.41,-10.78,1.11,11.70
14.896,-4.20,-10.69,2.39,11.73
14.906,-3.42,-10.47,4.49,11.90
14.916,-1.86,-9.90,6.99,12.26
14.926,1.09,-8.75,9.36,12.86
14.936,5.03,-7.41,11.72,14.75
14.946,9.32,-5.46,13.07,16.96
14.956,13.10,-4.19,15.22,20.51
14.967,16.25,-3.91,17.79,24.42
14.976,18.46,-3.06,19.03,26.69
14.987,19.21,-2.54,18.65,26.89
14.997,18.30,-2.19,16.36,24.65
15.006,16.23,-1.78,13.13,20.96
15.017,13.84,-1.37,9.79,17.01
15.027,11.77,-0.88,6.79,13.62
15.037,10.15,-0.46,4.38,11.06
15.047,8.92,-0.14,2.65,9.30
15.057,8.14,0.51,0.92,8.20
15.067,7.85,1.03,-0.50,7.94
15.077,7.37,1.19,-1.53,7.62
15.087,6.48,1.28,-2.28,6.98
15.097,5.58,1.36,-2.74,6.37
15.107,4.86,1.48,-2.98,5.89
15.117,4.42,1.73,-3.01,5.62
15.127,4.23,2.04,-2.90,5.52
15.137,3.68,2.38,-2.96,5.29
15.148,3.08,2.75,-3.64,5.50
15.158,2.86,3.28,-4.50,6.26
15.168,2.89,3.79,-4.98,6.89
15.178,3.18,4.16,-4.89,7.17
15.188,3.18,4.72,-3.97,6.94
15.198,2.58,4.04,-2.48,5.40
15.208,3.13,4.62,-1.08,5.69
15.218,3.31,5.13,-0.03,6.10
15.228,3.21,5.14,-0.34,6.07
15.238,3.04,5.61,-1.05,6.47
15.248,3.44,6.26,-1.36,7.27
15.258,3.98,6.64,-1.53,7.89
15.268,4.47,6.98,-1.25,8.38
15.279,5.25,7.39,-0.04,9.07
15.289,6.32,7.19,1.11,9.64
15.299,6.60,6.73,1.64,9.57
15.309,5.70,6.16,1.31,8.49
15.319,4.47,5.42,1.00,7.10
15.329,3.33,4.91,1.04,6.02
15.339,2.65,4.46,1.29,5.34
15.349,2.01,4.41,1.96,5.22
15.359,1.26,4.54,3.26,5.73
15.369,1.14,4.81,5.02,7.05
15.379,0.85,4.87,6.61,8.26
15.389,0.44,4.76,7.35,8.77
15.400,-0.47,4.35,7.18,8.41
15.409,-1.71,3.50,6.53,7.60
15.420,-1.87,3.12,5.28,6.41
15.430,-2.56,3.31,4.34,6.02
15.440,-3.69,1.97,3.60,5.52
15.450,-3.91,-0.05,2.89,4.86
15.460,-4.09,-1.21,1.89,4.67
15.470,-4.45,-2.45,0.86,5.15
15.480,-4.62,-3.64,0.32,5.89
15.490,-4.54,-4.73,-0.05,6.56
15.500,-4.39,-5.56,-0.56,7.11
15.510,-3.90,-5.51,-0.72,6.79
15.521,-2.44,-5.63,-0.54,6.16
15.531,-1.87,-7.47,-0.15,7.70
15.541,-1.68,-7.02,0.65,7.25
15.551,-0.95,-6.67,0.87,6.79
15.561,-1.09,-7.20,0.97,7.35
15.571,-1.99,-7.38,0.94,7.70
15.581,-2.79,-7.74,0.60,8.25
15.591,-3.79,-8.32,0.99,9.19
15.601,-5.64,-9.08,2.71,11.02
15.611,-6.54,-9.19,1.22,11.35
15.621,-7.51,-10.44,1.44,12.94
15.631,-8.12,-10.58,1.51,13.43
15.641,-6.71,-9.72,1.03,11.85
15.652,-3.79,-8.63,-0.12,9.42
15.662,-0.09,-6.82,-1.55,6.99
15.672,4.30,-4.75,-2.67,6.94
15.682,9.24,-1.97,-3.05,9.93
15.692,11.91,-0.27,-1.12,11.96
15.702,13.46,0.87,3.44,13.93
15.712,15.20,1.67,9.40,17.95
15.722,17.12,2.31,14.58,22.60
15.732,18.53,2.67,17.35,25.53
15.742,18.23,2.69,17.72,25.57
15.752,16.39,2.13,16.05,23.04
15.762,13.79,1.23,12.46,18.62
15.772,10.86,0.18,8.26,13.65
15.783,8.27,-0.63,4.43,9.41
15.793,6.39,-1.12,0.64,6.51
15.803,5.03,-1.64,-2.45,5.83
15.813,3.93,-2.32,-4.39,6.33
15.823,2.57,-3.00,-5.77,6.99
15.833,0.77,-3.92,-6.44,7.58
15.843,-1.21,-5.09,-6.77,8.56
15.853,-2.98,-6.36,-7.13,10.00
15.863,-4.50,-7.73,-7.06,11.39
15.873,-5.52,-9.35,-6.35,12.58
15.883,-5.75,-10.68,-5.52,13.32
15.893,-5.08,-11.54,-4.53,13.40
15.903,-3.56,-11.98,-3.05,12.86
15.913,-0.50,-11.74,-1.49,11.84
15.924,4.66,-10.12,0.91,11.18
15.934,10.94,-7.34,3.72,13.70
15.944,17.14,-4.34,6.54,18.85
15.954,20.07,-2.84,8.30,21.90
15.964,18.90,-1.50,8.96,20.97
15.974,14.59,0.48,8.89,17.09
15.984,10.06,2.14,8.26,13.19
15.994,7.68,3.38,6.89,10.86
16.004,6.51,3.91,5.71,9.50
16.014,4.78,4.39,5.15,8.28
16.024,2.34,4.79,4.73,7.12
16.034,0.57,5.22,3.53,6.33
16.045,-0.92,6.24,1.55,6.50
16.055,-2.36,7.46,-0.36,7.83
16.065,-2.39,9.41,-1.92,9.90
16.075,-2.01,10.81,-2.97,11.39
16.085,-0.99,11.51,-3.95,12.21
16.095,0.17,11.90,-4.23,12.63
16.105,0.70,11.59,-3.49,12.12
16.115,-0.38,10.98,-2.21,11.20
16.125,-2.28,10.75,-0.24,10.99
16.136,-4.00,10.61,2.45,11.60
16.146,-5.36,11.38,6.65,14.23
16.156,-7.15,11.59,10.21,17.02
16.166,-8.23,11.08,12.33,18.51
16.176,-8.99,10.56,13.63,19.44
16.186,-9.56,9.57,13.81,19.33
16.196,-9.79,8.36,13.56,18.70
16.206,-9.25,6.54,13.19,17.39
16.216,-8.81,4.09,12.41,15.76
16.226,-8.68,1.85,11.40,14.45
16.236,-8.64,-0.00,10.38,13.51
16.246,-8.50,-1.18,9.59,12.87
16.256,-7.91,-2.20,8.57,11.87
16.266,-7.08,-3.26,7.25,10.64
16.276,-6.40,-4.03,5.97,9.64
16.286,-5.93,-4.80,4.84,9.04
16.297,-5.92,-5.50,3.85,8.95
16.307,-6.17,-6.00,2.76,9.04
16.317,-6.39,-6.37,1.92,9.22
16.327,-6.60,-6.65,1.44,9.48
16.337,-6.63,-7.00,1.02,9.70
16.347,-6.42,-7.32,0.73,9.77
16.357,-6.06,-7.69,0.79,9.83
16.367,-5.56,-8.19,1.07,9.96
16.377,-5.08,-8.51,1.16,9.98
16.387,-5.13,-8.75,0.75,10.17
16.397,-4.99,-9.17,0.41,10.44
16.407,-3.94,-9.59,0.77,10.40
16.417,-2.06,-9.74,1.90,10.13
16.428,-0.24,-9.85,3.36,10.41
16.438,0.69,-9.95,3.79,10.66
16.448,1.08,-9.96,3.32,10.55
16.458,1.91,-9.51,2.61,10.04
16.468,5.19,-6.17,0.54,8.08
16.478,12.50,-1.43,-1.71,12.70
16.488,23.56,3.21,-1.06,23.80
16.498,33.58,8.06,2.89,34.66
16.508,37.45,10.57,7.25,39.58
16.518,33.44,10.66,10.65,36.68
16.528,23.95,9.88,10.51,27.96
16.538,14.23,8.75,6.47,17.91
16.548,8.23,7.62,0.62,11.23
16.558,5.28,7.58,-4.67,10.35
16.569,3.74,8.48,-7.95,12.21
16.579,2.66,9.26,-8.68,12.97
16.589,2.05,9.69,-7.79,12.60
16.599,1.17,9.56,-6.73,11.75
16.609,0.11,9.24,-6.09,11.07
16.619,-0.86,8.50,-5.40,10.10
16.629,-2.05,7.38,-4.58,8.92
16.639,-2.98,6.40,-3.66,7.96
16.649,-3.73,5.27,-2.76,7.02
16.659,-4.51,4.25,-2.28,6.60
16.669,-4.78,3.62,-1.99,6.32
16.679,-4.48,3.38,-2.05,5.98
16.689,-3.91,2.99,-1.99,5.31
16.700,-3.15,2.38,-1.62,4.27
16.710,-2.83,1.83,-1.60,3.73
16.720,-2.46,1.47,-1.46,3.21
16.730,-2.08,0.76,-1.21,2.52
16.740,-2.19,0.00,-0.98,2.40
16.750,-2.66,-0.67,-0.76,2.85
16.760,-2.87,-1.21,-0.69,3.19
16.770,-2.23,-1.21,-0.81,2.66
16.780,-1.03,-1.09,-0.79,1.69
16.790,-0.27,-1.20,-0.30,1.27
16.800,0.99,-0.93,0.04,1.36
16.810,2.18,-0.48,-0.08,2.23
16.821,2.72,-0.24,-0.10,2.73
16.831,2.89,-0.11,0.41,2.92
16.841,3.53,0.10,1.25,3.75
16.851,4.96,0.14,2.34,5.49
16.861,6.43,-0.61,3.45,7.32
16.871,7.14,-1.67,4.15,8.43
16.881,6.95,-2.92,4.33,8.69
16.891,6.03,-4.44,4.22,8.60
16.901,4.39,-5.86,3.92,8.31
16.911,2.78,-6.97,3.46,8.26
16.921,1.32,-7.72,2.90,8.35
16.931,-0.14,-8.38,2.10,8.64
16.941,-1.42,-8.72,1.36,8.94
16.952,-2.68,-8.93,0.69,9.35
16.962,-3.83,-9.16,0.03,9.93
16.972,-4.53,-9.15,-0.43,10.22
16.982,-4.92,-9.15,-0.59,10.40
16.992,-5.24,-9.44,-0.38,10.80
17.002,-5.46,-9.86,-0.05,11.27
17.012,-5.64,-10.30,0.32,11.75
17.022,-5.88,-10.73,0.79,12.27
17.032,-6.15,-11.26,1.41,12.90
17.042,-6.51,-11.92,2.08,13.74
17.052,-6.84,-12.50,2.73,14.51
17.062,-7.16,-12.89,3.24,15.10
17.072,-7.66,-13.08,3.85,15.64
17.083,-8.06,-12.85,4.39,15.79
17.093,-8.04,-12.34,4.36,15.36
17.103,-7.10,-11.74,4.08,14.32
17.113,-4.44,-11.22,3.28,12.50
17.123,0.17,-10.01,1.98,10.21
17.133,5.33,-7.75,1.66,9.55
17.143,9.69,-6.27,3.71,12.12
17.153,12.76,-5.76,6.29,15.35
17.163,16.59,-4.43,7.55,18.76
17.174,22.15,-3.05,7.91,23.72
17.184,25.95,-1.86,6.58,26.83
17.194,24.82,-0.84,5.39,25.41
17.204,21.00,-0.78,4.78,21.55
17.214,17.33,-0.99,4.59,17.95
17.224,15.70,-0.82,4.69,16.40
17.234,15.27,-0.31,5.13,16.11
17.244,15.21,0.46,4.57,15.88
17.254,14.51,0.90,3.48,14.95
17.264,13.36,0.96,1.81,13.52
17.274,11.95,1.02,0.18,12.00
17.284,10.35,0.90,-1.30,10.47
17.294,8.69,0.88,-2.48,9.08
17.304,7.73,1.23,-3.35,8.51
17.314,7.63,1.70,-3.52,8.57
17.324,7.40,1.98,-3.03,8.24
17.335,6.85,2.67,-2.15,7.66
17.345,6.38,3.50,-0.74,7.31
17.355,6.05,4.45,0.57,7.53
17.365,6.02,5.79,1.77,8.54
17.375,6.36,7.27,2.53,9.99
17.385,6.51,8.52,2.57,11.03
17.395,6.13,9.30,2.02,11.32
17.405,5.74,9.91,1.13,11.51
17.415,5.13,10.35,0.59,11.57
17.425,4.41,10.45,0.83,11.37
17.436,4.34,10.59,1.99,11.62
17.445,4.64,10.83,3.32,12.24
17.456,4.76,10.96,4.07,12.62
17.466,4.48,10.92,4.38,12.59
17.476,3.77,10.62,4.78,12.25
17.486,3.05,10.30,5.22,11.94
17.496,2.54,9.97,5.29,11.57
17.506,2.04,9.54,5.04,10.98
17.516,1.40,8.77,4.75,10.07
17.526,0.38,7.51,5.06,9.06
17.536,-1.03,6.19,5.47,8.32
17.546,-2.63,4.90,5.24,7.64
17.556,-4.11,3.80,4.76,7.35
17.566,-5.11,2.78,4.42,7.31
17.576,-6.03,1.55,4.26,7.54
17.586,-7.17,0.23,4.17,8.30
17.597,-8.29,-0.99,4.02,9.27
17.607,-8.99,-2.34,4.15,10.17
17.617,-9.60,-2.99,4.50,11.02
17.627,-9.92,-3.45,4.51,11.43
17.637,-9.44,-3.73,4.06,10.94
17.647,-8.58,-3.94,2.93,9.89
17.657,-7.64,-4.05,1.20,8.73
17.667,-6.31,-3.56,-0.81,7.30
17.677,-5.74,-3.03,-2.82,7.07
17.687,-5.93,-2.80,-4.72,8.08
17.697,-6.02,-3.02,-6.72,9.51
17.707,-6.27,-3.10,-7.89,10.54
17.718,-6.58,-3.30,-8.16,10.99
17.728,-6.95,-4.13,-7.22,10.84
17.738,-7.25,-4.89,-5.48,10.32
17.748,-7.59,-5.61,-3.96,10.23
17.758,-7.70,-6.24,-2.68,10.27
17.768,-7.08,-6.71,-1.50,9.87
17.778,-5.30,-6.82,-0.71,8.67
17.788,-2.38,-6.45,-0.28,6.88
17.798,1.75,-4.65,-1.31,5.14
17.808,5.20,-3.03,-2.25,6.43
17.818,8.18,-2.61,-1.57,8.73
17.828,10.45,-2.39,1.24,10.79
17.839,12.01,-1.71,3.54,12.64
17.849,13.85,-0.62,4.32,14.52
17.859,16.37,0.54,5.31,17.22
17.869,19.18,1.24,6.75,20.37
17.879,20.51,1.51,8.10,22.10
17.889,20.36,0.90,8.51,22.08
17.899,19.43,0.16,8.04,21.03
17.909,17.98,-0.42,7.02,19.30
17.919,15.67,-1.18,5.34,16.60
17.929,12.51,-1.89,3.14,13.04
17.939,9.14,-2.62,0.75,9.54
17.949,6.18,-3.22,-1.18,7.07
17.959,4.34,-3.72,-2.28,6.15
17.970,3.38,-3.71,-2.69,5.70
17.980,2.95,-3.51,-2.71,5.33
17.990,2.85,-3.46,-2.57,5.17
18.000,3.05,-3.69,-2.21,5.28
18.010,3.05,-4.16,-2.30,5.65
18.020,2.45,-4.60,-2.87,5.95
18.030,1.30,-4.70,-3.78,6.17
18.040,-0.01,-4.77,-4.62,6.64
18.050,-1.27,-5.17,-5.20,7.44
18.060,-2.23,-5.63,-5.27,8.03
18.070,-2.68,-6.31,-4.57,8.24
18.080,-2.74,-7.40,-3.48,8.63
18.090,-2.66,-8.64,-2.63,9.42
18.101,-2.74,-9.74,-2.04,10.32
18.110,-3.08,-10.56,-1.62,11.12
18.121,-3.62,-11.11,-1.34,11.77
18.131,-4.39,-11.14,-1.18,12.03
18.141,-4.72,-10.76,-1.25,11.81
18.151,-4.65,-10.37,0.21,11.36
18.161,-3.69,-9.25,3.70,10.62
18.171,-0.49,-6.41,7.43,9.82
18.181,5.59,-2.33,10.29,11.94
18.191,13.06,2.67,11.77,17.79
18.201,19.87,7.51,11.24,24.03
18.212,22.70,10.45,8.91,26.53
18.222,20.67,11.54,4.54,24.10
18.232,16.22,11.46,-0.17,19.86
18.242,11.65,10.83,-3.42,16.28
18.252,8.30,9.75,-4.24,13.48
18.262,6.83,8.70,-2.57,11.36
18.272,6.23,7.34,0.55,9.65
18.282,4.27,5.67,3.47,7.90
18.292,1.63,4.52,5.37,7.21
18.302,-1.00,3.85,6.33,7.48
18.312,-3.61,3.52,5.77,7.67
18.322,-5.97,3.75,3.99,8.10
18.332,-7.78,4.60,2.21,9.31
18.342,-8.98,5.49,0.85,10.56
18.352,-9.42,6.27,0.28,11.32
18.363,-9.43,7.23,0.62,11.90
18.373,-9.26,8.19,1.88,12.50
18.383,-8.80,9.01,3.68,13.12
18.393,-8.34,9.64,5.48,13.87
18.403,-8.40,9.83,6.91,14.66
18.413,-8.86,9.60,8.21,15.43
18.423,-9.18,8.94,8.72,15.50
18.433,-8.84,7.88,8.89,14.80
18.443,-8.21,6.77,8.81,13.81
18.453,-7.21,5.24,8.83,12.54
18.463,-6.13,3.64,8.54,11.13
18.473,-5.39,2.09,7.92,9.80
18.484,-4.90,0.73,7.08,8.64
18.494,-4.43,-0.41,5.87,7.36
18.504,-3.96,-1.06,4.36,5.98
18.514,-4.03,-1.38,2.82,5.11
18.524,-4.24,-1.61,0.99,4.65
18.534,-4.29,-1.86,-0.77,4.74
18.544,-4.44,-2.21,-1.94,5.33
18.554,-4.44,-2.87,-2.35,5.79
18.564,-4.16,-3.69,-1.92,5.88
18.574,-3.67,-4.61,-0.70,5.93
18.584,-3.02,-5.63,0.79,6.44
18.594,-2.50,-6.43,1.98,7.18
18.604,-2.45,-6.95,2.61,7.82
18.614,-3.11,-7.22,2.57,8.27
18.625,-4.54,-7.56,1.94,9.03
18.635,-6.24,-8.20,0.86,10.34
18.645,-7.91,-8.81,-0.48,11.85
18.655,-9.24,-9.39,-2.01,13.33
18.665,-9.45,-10.12,-3.20,14.21
18.675,-8.25,-10.56,-3.34,13.81
18.685,-5.52,-10.62,-2.01,12.13
18.695,-1.00,-10.48,-0.01,10.52
18.706,4.95,-9.79,2.84,11.33
18.715,10.99,-7.31,6.04,14.52
18.725,16.08,-3.74,8.29,18.47
18.736,21.72,0.38,8.85,23.45
18.746,26.75,4.16,8.50,28.38
18.756,28.88,6.75,7.36,30.56
18.766,26.49,7.62,5.95,28.19
18.776,20.22,6.93,4.10,21.77
18.786,12.59,5.76,1.04,13.89
18.796,6.40,5.23,-2.52,8.64
18.806,2.98,5.34,-4.76,7.75
18.816,1.16,5.27,-5.30,7.56
18.826,0.04,5.26,-4.83,7.14
18.836,-0.72,5.47,-4.43,7.08
18.846,-1.27,5.57,-4.31,7.16
18.856,-1.78,5.70,-4.34,7.38
18.867,-1.67,5.98,-4.32,7.57
18.877,-0.93,6.23,-3.82,7.37
18.887,0.39,6.88,-3.25,7.62
18.897,1.40,7.25,-2.67,7.85
18.907,1.95,7.32,-2.43,7.95
18.917,2.32,7.51,-2.50,8.25
18.927,2.29,7.27,-2.35,7.97
18.937,1.43,6.47,-2.43,7.06
18.947,-0.05,5.55,-2.52,6.10
18.957,-1.39,4.56,-2.72,5.49
18.967,-2.32,3.70,-2.78,5.18
18.977,-2.73,2.85,-2.49,4.66
18.987,-2.43,2.28,-2.47,4.14
18.998,-2.05,1.91,-2.56,3.80
19.008,-1.94,1.16,-2.00,3.02
19.018,-1.89,0.68,-1.11,2.29
19.028,-1.90,0.63,0.41,2.04
19.038,-1.11,0.39,1.93,2.26
19.048,0.18,0.33,3.19,3.22
19.058,1.06,0.14,3.84,3.98
19.068,1.34,-0.38,3.95,4.19
19.078,0.85,-1.08,3.67,3.92
19.088,-0.04,-1.67,3.54,3.92
19.098,-0.82,-1.90,3.22,3.82
19.108,-0.49,-1.45,2.67,3.08
19.118,0.86,-1.07,2.78,3.10
19.128,2.21,-1.07,3.82,4.54
19.139,2.31,-1.28,4.54,5.25
19.149,1.69,-1.59,4.35,4.93
19.159,1.28,-1.55,3.95,4.43
19.169,1.22,-1.78,3.58,4.18
19.179,1.33,-2.13,2.68,3.68
19.189,1.56,-2.33,1.32,3.10
19.199,1.37,-2.44,0.18,2.81
19.209,0.35,-2.81,-0.60,2.90
19.219,-1.06,-3.32,-1.38,3.75
19.229,-2.14,-3.89,-1.67,4.75
19.239,-2.53,-4.47,-1.63,5.38
19.249,-2.69,-5.26,-1.45,6.08
19.259,-2.95,-5.89,-1.49,6.76
19.270,-3.75,-6.26,-2.23,7.63
19.280,-4.86,-6.65,-3.46,8.93
19.290,-6.13,-6.93,-4.77,10.41
19.300,-7.49,-7.22,-5.91,11.96
19.310,-8.47,-7.46,-6.46,13.00
19.320,-8.84,-7.60,-6.68,13.43
19.330,-8.46,-7.28,-6.37,12.85
19.340,-7.54,-6.54,-5.15,11.23
19.350,-6.36,-6.10,-3.38,9.44
19.360,-4.85,-5.62,-1.49,7.57
19.370,-3.61,-5.01,0.00,6.17
19.380,-3.22,-5.37,0.60,6.29
19.391,-3.25,-6.44,1.13,7.30
19.401,-3.94,-7.99,2.30,9.20
19.411,-5.95,-9.81,2.87,11.83
19.421,-9.89,-11.89,1.91,15.58
19.431,-13.33,-13.10,-0.19,18.69
19.441,-10.91,-12.48,-1.64,16.65
19.451,-2.32,-10.25,-0.78,10.53
19.461,9.27,-6.83,1.69,11.64
19.471,19.06,-3.37,3.99,19.76
19.482,23.59,-1.32,5.30,24.22
19.492,22.44,-0.75,5.65,23.15
19.502,18.95,-0.92,6.15,19.95
19.512,17.32,-1.29,7.62,18.96
19.522,17.86,-0.71,9.98,20.47
19.532,19.58,0.10,12.59,23.28
19.542,20.49,0.93,13.85,24.75
19.552,19.88,1.63,13.25,23.95
19.562,18.11,1.85,11.52,21.55
19.572,16.42,2.33,8.72,18.74
19.582,14.91,2.68,5.33,16.06
19.592,13.18,2.81,2.05,13.63
19.602,10.75,2.58,-0.34,11.06
19.612,8.30,2.17,-1.33,8.69
19.622,6.45,1.65,-1.31,6.78
19.632,5.05,1.03,-1.07,5.26
19.642,4.50,1.01,-0.80,4.68
19.652,4.52,1.11,-0.42,4.67
19.662,4.40,1.04,-0.62,4.56
19.672,3.99,1.31,-1.06,4.33
19.682,3.18,1.29,-0.83,3.53
19.693,2.16,0.98,-0.73,2.48
19.703,1.10,0.75,-0.97,1.64
19.713,0.41,0.70,-0.58,0.99
19.723,-0.42,0.81,0.49,1.04
19.733,-1.05,1.09,1.52,2.15
19.743,-0.66,2.15,2.22,3.16
19.753,0.36,3.57,2.58,4.42
19.763,1.01,4.78,2.46,5.47
19.773,1.13,6.21,1.68,6.53
19.783,1.75,7.51,0.43,7.72
19.793,3.18,9.08,-0.72,9.65
19.804,4.89,10.35,-1.28,11.52
19.814,5.20,10.88,-0.56,12.07
19.824,3.25,10.93,0.76,11.42
19.834,0.42,10.76,2.39,11.03
19.844,-2.04,10.68,4.11,11.62
19.854,-4.20,11.19,5.16,13.02
19.864,-6.02,11.61,4.28,13.76
19.875,-7.41,12.36,2.42,14.62
19.885,-7.70,13.09,0.59,15.20
19.895,-6.49,12.83,-1.14,14.42
19.904,-3.82,12.04,-1.59,12.73
19.915,-1.26,10.54,-1.47,10.72
19.925,0.26,7.92,-1.36,8.04
19.935,0.62,4.72,-0.74,4.82
19.945,0.12,1.57,0.42,1.63
19.955,-0.68,-1.21,1.64,2.15
19.965,-1.31,-3.51,2.71,4.63
19.975,-1.68,-5.21,3.68,6.60
19.985,-1.86,-6.35,4.51,8.01
19.995,-1.87,-7.22,5.18,9.08
20.005,-1.95,-7.80,5.41,9.69
20.016,-2.19,-8.25,5.16,9.98
20.025,-2.24,-8.69,4.67,10.11
20.036,-2.21,-8.80,3.84,9.85
20.046,-2.52,-8.72,2.89,9.52
20.056,-3.56,-8.76,1.98,9.66
20.066,-5.19,-8.95,1.07,10.40
20.076,-7.33,-9.13,0.04,11.71
20.086,-9.43,-9.34,-1.31,13.34
20.096,-11.04,-9.70,-2.74,14.95
20.106,-11.03,-9.62,-3.67,15.09
20.116,-8.68,-8.98,-3.88,13.07
20.126,-4.40,-7.74,-3.36,9.52
20.136,0.27,-5.91,-2.50,6.43
20.146,4.77,-4.10,-1.51,6.46
20.156,8.89,-2.34,-0.59,9.21
20.167,12.67,-0.67,0.63,12.70
20.177,15.57,0.83,2.45,15.79
20.187,17.44,1.83,4.26,18.04
20.197,18.45,2.17,5.83,19.47
20.207,18.35,2.01,7.03,19.76
20.217,17.27,1.42,7.02,18.69
20.227,15.63,0.25,6.05,16.76
20.237,13.60,-0.99,4.53,14.37
20.248,11.50,-1.86,2.86,11.99
20.257,9.37,-2.73,1.57,9.88
20.267,7.20,-3.20,1.09,7.95
20.277,4.87,-3.56,1.15,6.14
20.287,2.75,-4.72,1.04,5.56
20.298,0.72,-6.43,0.83,6.52
20.308,-1.26,-7.88,0.92,8.03
20.318,-3.78,-9.10,0.55,9.87
20.328,-7.55,-10.26,-0.91,12.77
20.338,-12.26,-11.37,-2.76,16.94
20.348,-15.58,-12.82,-3.96,20.56
20.358,-15.27,-14.31,-3.97,21.30
20.368,-11.94,-14.69,-3.60,19.27
20.378,-6.96,-14.03,-3.71,16.10
20.388,-0.81,-12.54,-4.36,13.30
20.398,6.49,-9.61,-4.34,12.38
20.408,16.73,-5.46,-2.13,17.73
20.419,29.80,0.77,2.91,29.95
20.429,39.91,8.23,6.52,41.26
20.439,40.94,13.14,5.48,43.35
20.449,31.23,13.35,1.97,34.02
20.459,19.00,10.86,-0.94,21.91
20.469,9.31,8.83,-1.57,12.92
20.479,2.62,6.91,-1.92,7.64
20.489,-1.96,5.62,-2.44,6.43
20.499,-3.55,4.89,-2.72,6.62
20.509,-2.32,4.38,-2.67,5.63
20.519,-0.63,4.37,-2.35,5.00
20.529,0.32,4.75,-3.08,5.67
20.539,-1.00,5.28,-4.77,7.18
20.549,-4.24,5.00,-6.62,9.32
20.560,-6.73,4.60,-7.94,11.38
20.570,-6.81,4.17,-7.90,11.24
20.580,-4.93,4.05,-6.90,9.39
20.590,-2.83,4.50,-5.42,7.59
20.600,-1.30,5.48,-3.92,6.86
20.610,-0.75,6.56,-2.66,7.12
20.620,-0.93,7.96,-1.78,8.21
20.630,-1.06,9.46,-1.42,9.62
20.640,-0.54,10.87,-1.20,10.95
20.650,0.28,12.39,-0.27,12.39
20.661,0.77,13.25,2.12,13.44
20.671,0.18,13.41,5.97,14.68
20.681,-1.15,13.42,10.07,16.82
20.691,-2.72,12.93,12.87,18.45
20.701,-4.36,12.14,14.42,19.35
20.711,-5.57,11.18,15.13,19.62
20.721,-5.97,10.12,15.14,19.16
20.731,-5.27,9.28,14.98,18.39
20.741,-4.10,8.21,14.45,17.11
20.751,-3.45,7.16,13.30,15.50
20.761,-3.02,6.28,11.92,13.81
20.771,-2.50,5.26,10.65,12.14
20.781,-2.05,3.86,9.18,10.16
20.791,-1.45,2.31,7.93,8.39
20.802,-0.51,0.52,7.12,7.15
20.811,0.39,-1.67,6.86,7.07
20.822,0.75,-3.80,6.74,7.78
20.832,0.59,-5.89,6.18,8.55
20.842,-0.32,-7.63,4.95,9.11
20.852,-1.61,-8.78,3.29,9.51
20.862,-3.35,-9.44,1.32,10.11
20.872,-5.63,-9.62,-0.98,11.19
20.882,-8.19,-9.41,-2.84,12.79
20.892,-10.75,-9.08,-3.95,14.61
20.902,-12.82,-8.38,-4.68,16.01
20.912,-13.89,-7.11,-5.18,16.44
20.922,-13.73,-5.79,-5.57,15.91
20.932,-12.04,-4.40,-4.58,13.61
20.943,-9.98,-2.98,-2.13,10.63
20.953,-7.40,-1.78,0.03,7.61
20.963,-3.88,0.51,1.37,4.15
20.973,0.21,3.47,1.14,3.65
20.983,5.26,7.81,-0.07,9.42
20.993,11.76,13.06,-0.49,17.58
21.003,20.12,17.23,1.71,26.54
21.013,30.50,20.47,6.71,37.33
21.023,39.47,22.05,11.55,46.67
21.034,43.57,21.61,14.40,50.72
21.044,40.16,18.61,14.41,46.55
21.053,30.94,12.91,11.26,35.36
21.063,20.49,6.92,6.82,22.68
21.074,12.82,2.36,2.88,13.35
21.084,8.68,-0.80,-0.11,8.71
21.094,6.49,-3.12,-1.83,7.43
21.104,5.42,-5.24,-2.50,7.95
21.114,4.78,-6.89,-2.96,8.89
21.124,3.96,-8.15,-3.58,9.74
21.134,2.87,-9.24,-4.35,10.61
21.144,1.58,-10.08,-5.29,11.50
21.154,-0.32,-11.12,-6.40,12.84
21.164,-3.33,-12.57,-7.99,15.27
21.174,-7.21,-13.62,-9.57,18.14
21.184,-10.27,-14.07,-10.41,20.29
21.195,-11.05,-14.14,-9.99,20.54
21.205,-10.15,-13.70,-8.40,19.00
21.215,-8.77,-12.95,-6.57,16.97
21.225,-7.57,-12.50,-4.85,15.40
21.235,-6.62,-11.93,-3.36,14.05
21.245,-5.38,-11.14,-2.08,12.54
21.255,-3.06,-10.13,-0.91,10.62
21.265,0.64,-8.54,0.20,8.57
21.275,4.33,-6.06,1.00,7.52
21.285,7.93,-3.11,2.02,8.75
21.295,11.59,-0.61,4.06,12.30
21.305,15.54,1.30,7.69,17.39
21.315,18.47,2.73,12.18,22.29
21.326,19.44,2.72,15.04,24.73
21.336,18.32,1.69,15.03,23.76
21.346,15.30,0.27,12.01,19.45
21.356,11.88,-0.88,7.37,14.01
21.366,8.75,-1.49,3.34,9.48
21.376,6.00,-2.32,0.25,6.44
21.386,3.56,-3.40,-1.61,5.18
21.396,1.32,-4.45,-2.41,5.22
21.406,-0.43,-5.40,-2.67,6.04
21.416,-1.92,-6.21,-2.71,7.04
21.426,-3.57,-6.81,-2.64,8.13
21.436,-5.32,-7.15,-2.72,9.32
21.447,-7.21,-7.64,-2.34,10.76
21.457,-9.13,-8.37,-1.25,12.45
21.467,-11.19,-9.30,-0.13,14.55
21.477,-12.94,-10.56,1.12,16.73
21.487,-13.75,-11.78,2.49,18.27
21.497,-13.70,-12.71,3.96,19.10
21.507,-12.52,-13.07,6.25,19.14
21.517,-10.25,-12.11,8.25,17.88
21.527,-6.91,-9.58,7.78,14.14
21.537,-3.16,-5.49,4.93,8.03
21.547,-0.18,-0.52,1.60,1.69
21.557,1.97,3.85,0.45,4.35
21.567,2.89,6.55,4.02,8.21
21.578,4.38,8.24,10.13,13.78
21.588,7.77,9.20,16.10,20.11
21.598,12.76,9.93,20.75,26.30
21.608,17.25,10.04,23.09,30.52
21.618,19.25,8.65,21.77,30.32
21.628,17.71,6.40,17.20,25.50
21.638,14.13,4.09,11.71,18.80
21.648,10.46,2.08,6.65,12.57
21.658,7.65,0.45,2.67,8.11
21.668,5.65,-0.63,0.49,5.71
21.678,4.25,-1.14,-0.62,4.44
21.688,2.61,-2.05,-1.26,3.55
21.698,1.59,-3.06,-2.22,4.10
21.709,0.90,-3.22,-3.72,5.00
21.719,0.72,-3.22,-6.16,6.99
21.729,1.93,-3.03,-9.10,9.79
21.739,4.59,-2.16,-11.65,12.71
21.749,8.17,-1.69,-12.31,14.87
21.759,10.16,-1.81,-9.29,13.88
21.769,10.14,-1.80,-5.46,11.66
21.779,10.75,-1.48,-1.93,11.02
21.789,12.81,-0.99,1.40,12.92
21.799,14.86,-0.52,3.41,15.25
21.809,15.32,-0.07,3.63,15.75
21.819,14.39,0.03,2.37,14.58
21.830,12.66,-0.33,0.60,12.68
21.839,10.60,-0.78,-1.26,10.70
21.850,8.78,-1.08,-2.85,9.29
21.860,7.45,-1.27,-3.81,8.46
21.870,6.39,-1.42,-4.10,7.72
21.880,5.64,-1.18,-3.61,6.80
21.890,4.78,-1.13,-3.07,5.79
21.900,4.05,-1.00,-3.19,5.25
21.910,4.05,-0.40,-3.20,5.18
21.920,4.11,0.16,-3.41,5.34
21.930,3.69,0.69,-4.03,5.51
21.940,3.64,1.34,-4.23,5.73
21.950,4.27,2.22,-3.91,6.20
21.960,5.67,3.27,-2.97,7.19
21.971,6.97,4.19,-1.50,8.27
21.981,7.53,4.96,-0.14,9.02
21.991,7.57,5.44,0.69,9.34
22.001,7.21,5.87,0.61,9.32
22.011,6.20,6.13,0.25,8.72
22.021,5.16,6.40,0.25,8.23
22.031,4.34,7.05,0.02,8.28
22.041,4.14,8.02,-0.43,9.04
22.051,4.14,8.26,-0.41,9.25
22.061,3.54,8.11,0.03,8.85
22.071,2.64,8.05,0.73,8.50
22.081,1.09,7.24,1.24,7.43
22.091,-1.55,5.90,1.97,6.41
22.102,-4.76,4.78,2.82,7.31
22.112,-8.10,3.46,3.45,9.46
22.122,-10.77,1.97,3.80,11.59
22.132,-11.98,0.59,4.09,12.67
22.142,-11.47,-0.59,4.44,12.31
22.152,-10.05,-1.66,4.48,11.13
22.162,-8.49,-2.71,4.28,9.88
22.172,-6.97,-3.75,3.98,8.86
22.182,-5.66,-4.67,3.69,8.21
22.192,-4.76,-5.43,3.41,7.98
22.202,-4.19,-6.36,3.34,8.31
22.212,-4.11,-7.35,3.38,9.07
22.223,-4.55,-8.31,3.44,10.08
22.233,-5.28,-9.30,3.46,11.24
22.243,-6.74,-10.27,3.11,12.67
22.253,-9.29,-11.06,2.38,14.64
22.263,-11.59,-11.62,1.47,16.48
22.273,-11.92,-11.87,1.30,16.87
22.283,-9.86,-11.23,1.75,15.04
22.293,-5.28,-9.55,2.05,11.10
22.303,1.58,-6.94,2.26,7.46
22.313,8.94,-2.71,2.11,9.57
22.323,14.06,0.82,2.76,14.36
22.333,18.03,3.21,5.42,19.10
22.344,21.82,5.44,10.06,24.64
22.354,24.60,5.85,14.12,28.96
22.364,24.48,5.47,15.94,29.72
22.374,21.61,4.77,14.93,26.70
22.384,17.71,2.70,11.64,21.36
22.394,13.20,0.47,7.88,15.38
22.404,9.07,-1.44,4.56,10.26
22.414,5.85,-3.04,1.75,6.82
22.424,3.21,-4.19,-0.66,5.32
22.434,0.97,-5.32,-2.49,5.96
22.444,-0.97,-6.54,-3.28,7.38
22.454,-2.58,-8.03,-3.89,9.29
22.464,-3.95,-8.97,-4.67,10.86
22.474,-4.95,-9.43,-5.30,11.90
22.484,-5.56,-10.19,-5.54,12.87
22.495,-6.30,-10.77,-5.53,13.65
22.505,-7.31,-11.08,-5.75,14.46
22.515,-8.11,-12.04,-6.26,15.81
22.525,-8.03,-13.03,-6.17,16.50
22.535,-6.76,-12.96,-5.93,15.77
22.545,-3.37,-11.94,-6.59,14.05
22.555,2.86,-10.63,-7.42,13.27
22.565,10.03,-9.21,-5.94,14.86
22.575,15.77,-7.10,-2.05,17.41
22.586,20.11,-4.24,2.28,20.68
22.596,23.03,-0.67,5.75,23.75
22.606,24.69,3.00,9.03,26.46
22.616,25.45,5.67,11.71,28.59
22.626,23.45,6.74,12.61,27.46
22.636,18.59,6.59,10.54,22.36
22.646,13.47,5.92,6.94,16.27
22.656,9.67,4.86,3.73,11.45
22.666,7.43,4.26,1.44,8.69
22.676,6.11,4.03,-0.60,7.35
22.686,4.31,3.72,-2.09,6.06
22.696,1.77,3.25,-2.87,4.68
22.706,-0.62,2.81,-2.87,4.07
22.716,-2.44,2.59,-2.15,4.15
22.726,-3.43,2.47,-1.50,4.48
22.737,-2.77,2.50,-0.58,3.78
22.747,-1.12,2.69,0.51,2.96
22.757,0.12,2.97,0.99,3.13
22.767,-0.04,3.22,1.02,3.37
22.777,-1.41,3.25,1.26,3.76
22.787,-2.87,3.17,1.47,4.52
22.797,-3.50,3.54,2.20,5.44
22.807,-2.88,4.10,3.40,6.05
22.817,-1.82,4.73,4.98,7.10
22.827,-1.20,5.46,6.30,8.42
22.837,-0.75,6.51,7.21,9.75
22.847,-0.55,8.19,7.25,10.95
22.857,-0.95,10.30,6.42,12.18
22.868,-2.51,12.78,5.74,14.24
22.878,-5.02,15.22,5.68,17.00
22.888,-7.41,16.92,6.66,19.64
22.898,-9.22,17.48,8.85,21.65
22.908,-10.60,16.79,11.81,23.10
22.918,-11.69,15.10,14.74,24.12
22.928,-12.48,12.72,16.50,24.29
22.938,-13.25,10.34,16.70,23.69
22.948,-13.26,8.77,15.44,22.16
22.958,-11.86,8.11,12.99,19.37
22.968,-9.29,8.33,10.09,16.05
22.978,-6.42,8.59,7.26,12.94
22.988,-3.77,8.12,4.73,10.13
22.999,-1.70,6.94,4.01,8.19
23.009,-0.14,5.14,5.59,7.60
23.019,0.91,3.24,8.06,8.73
23.029,1.60,1.47,10.09,10.32
23.039,1.98,-0.11,11.26,11.43
23.049,2.15,-1.38,11.61,11.88
23.059,1.78,-1.92,10.81,11.12
23.069,1.19,-1.75,9.34,9.57
23.079,1.62,-0.10,7.54,7.71
23.089,2.45,2.11,5.97,6.79
23.099,3.39,3.98,4.41,6.84
23.109,4.67,5.50,3.34,7.96
23.119,5.59,6.50,2.91,9.06
23.129,6.40,8.31,1.97,10.67
23.140,7.64,10.17,1.23,12.78
23.150,10.01,11.73,-0.32,15.43
23.160,12.20,12.23,-2.02,17.39
23.170,13.02,10.96,-2.86,17.26
23.180,12.27,8.41,-2.85,15.14
23.190,10.61,5.52,-2.35,12.18
23.200,8.63,3.23,-1.64,9.36
23.210,7.23,1.82,-0.65,7.48
23.220,6.30,0.60,-0.21,6.33
23.230,6.02,-0.66,-0.58,6.09
23.240,6.24,-1.87,-1.34,6.65
23.251,6.32,-2.87,-1.92,7.20
23.261,6.13,-3.64,-2.19,7.46
23.271,5.80,-4.53,-2.04,7.64
23.281,5.26,-5.58,-1.61,7.84
23.291,4.53,-6.59,-0.95,8.06
23.301,3.52,-7.67,-0.55,8.46
23.311,2.16,-8.46,-0.80,8.77
23.321,0.53,-9.04,-1.69,9.21
23.331,-1.79,-9.63,-2.93,10.22
23.341,-4.77,-9.93,-4.35,11.85
23.351,-7.44,-10.01,-5.53,13.64
23.361,-8.44,-10.04,-5.72,14.31
23.371,-7.56,-10.13,-4.90,13.56
23.381,-5.38,-9.69,-3.49,11.62
23.392,-2.44,-8.75,-2.35,9.38
23.402,0.98,-7.55,-1.08,7.69
23.412,5.19,-5.74,0.94,7.80
23.424,9.93,-2.90,3.29,10.86
23.432,14.07,-0.07,5.75,15.20
23.442,17.08,1.80,8.26,19.06
23.452,18.16,2.92,10.19,21.02
23.462,17.59,3.06,11.08,21.01
23.472,15.83,1.92,11.06,19.40
23.482,13.10,0.49,9.77,16.34
23.492,10.10,-0.63,7.84,12.80
23.502,7.29,-1.52,5.89,9.49
23.513,4.86,-2.22,4.05,6.70
23.523,2.97,-3.09,2.75,5.09
23.533,1.38,-3.85,1.71,4.44
23.543,0.25,-4.53,0.86,4.62
23.553,-0.43,-5.06,0.12,5.08
23.563,-0.86,-5.38,-0.66,5.49
23.573,-1.24,-5.45,-1.65,5.82
23.583,-1.64,-5.47,-2.28,6.15
23.593,-2.08,-5.72,-2.53,6.59
23.603,-2.59,-6.16,-2.65,7.19
23.613,-3.22,-6.70,-2.90,7.98
23.623,-4.32,-7.16,-3.62,9.11
23.633,-5.58,-7.63,-4.74,10.58
23.644,-7.39,-8.45,-5.30,12.41
23.654,-9.78,-9.67,-4.62,14.51
23.664,-11.67,-11.02,-2.92,16.31
23.674,-12.63,-11.91,-0.62,17.37
23.684,-12.80,-11.84,1.81,17.53
23.694,-10.89,-10.47,4.16,15.67
23.704,-6.88,-8.13,6.22,12.33
23.714,-2.29,-5.00,7.44,9.25
23.724,1.60,-1.31,9.63,9.85
23.734,5.09,1.89,13.84,14.87
23.745,9.02,4.58,19.13,21.65
23.755,13.54,6.58,25.15,29.31
23.765,18.39,8.01,30.60,36.59
23.775,23.04,9.04,32.65,40.97
23.785,27.52,8.90,31.09,42.47
23.795,30.79,7.35,26.41,41.23
23.805,30.52,4.83,19.65,36.62
23.815,26.98,1.77,12.00,29.58
23.825,22.06,-0.89,5.03,22.65
23.835,17.63,-2.80,-0.53,17.86
23.845,14.56,-3.93,-4.18,15.65
23.855,12.71,-4.26,-6.56,14.93
23.865,10.88,-4.09,-8.76,14.56
23.875,8.17,-3.89,-10.73,14.04
23.885,5.66,-3.55,-11.87,13.62
23.895,4.10,-2.64,-12.36,13.29
23.905,1.96,-2.46,-12.59,12.98
23.916,0.08,-3.00,-12.38,12.74
23.926,-0.46,-3.43,-11.57,12.08
23.936,-0.66,-3.54,-9.58,10.23
23.946,0.13,-3.04,-7.89,8.46
23.956,2.13,-2.48,-6.75,7.50
23.966,4.22,-1.66,-5.82,7.38
23.976,5.89,-0.62,-5.33,7.96
23.986,7.61,0.06,-5.18,9.21
23.996,8.76,0.34,-5.05,10.12
24.006,9.26,0.46,-5.03,10.54
24.016,9.23,0.39,-5.35,10.67
24.027,8.78,0.01,-5.79,10.52
24.037,8.13,-0.59,-6.24,10.27
24.047,7.21,-1.23,-6.46,9.76
24.057,5.86,-1.95,-6.26,8.80
24.067,4.75,-2.46,-5.92,7.98
24.077,4.46,-2.46,-5.49,7.49
24.087,5.02,-2.12,-5.00,7.39
24.097,5.23,-1.95,-4.51,7.18
24.107,4.96,-1.89,-4.16,6.74
24.117,4.70,-1.66,-4.17,6.50
24.127,4.70,-1.28,-4.16,6.40
24.137,5.09,-0.82,-3.99,6.52
24.147,6.38,0.23,-3.41,7.24
24.157,7.84,1.28,-2.23,8.25
24.168,8.50,2.36,-1.09,8.89
24.178,8.03,3.54,-0.44,8.79
24.188,6.77,4.85,-0.12,8.33
24.198,4.71,6.35,-0.01,7.90
24.208,2.46,8.04,-0.13,8.41
24.218,0.96,9.62,-0.48,9.68
24.228,-0.53,10.73,-0.56,10.76
24.238,-1.19,11.38,0.32,11.45
24.249,-1.19,11.23,1.82,11.44
24.258,-1.15,10.38,3.32,10.96
24.268,-1.43,9.19,4.31,10.26
24.279,-1.92,7.76,5.00,9.43
24.288,-2.63,5.87,5.94,8.76
24.299,-3.45,3.89,6.93,8.66
24.309,-4.22,1.78,7.32,8.64
24.319,-4.99,-0.33,7.18,8.75
24.329,-5.33,-2.08,6.59,8.73
24.339,-5.18,-3.38,5.89,8.54
24.349,-4.79,-4.23,5.25,8.27
24.359,-4.37,-4.90,4.54,7.98
24.369,-4.67,-5.88,3.56,8.30
24.379,-5.93,-6.81,2.09,9.27
24.389,-7.81,-8.01,0.50,11.20
24.399,-9.22,-9.49,-0.11,13.23
24.409,-8.77,-10.74,0.85,13.90
24.420,-5.85,-10.88,2.10,12.54
24.430,-1.43,-9.81,3.18,10.41
24.440,3.75,-7.97,4.38,9.83
24.450,7.97,-5.84,5.56,11.34
24.460,11.72,-4.00,5.84,13.69
24.470,14.81,-2.26,5.78,16.06
24.480,15.49,-1.71,6.35,16.83
24.490,14.35,-2.30,8.35,16.76
24.500,13.03,-2.73,11.29,17.46
24.510,12.57,-2.48,12.76,18.09
24.520,12.45,-2.07,12.37,17.67
24.530,11.52,-2.10,10.67,15.84
24.540,9.52,-2.67,8.51,13.04
24.551,6.80,-3.26,6.10,9.70
24.561,4.01,-3.77,3.69,6.63
24.571,1.49,-3.98,1.71,4.58
24.581,-0.50,-4.16,0.09,4.19
24.591,-1.78,-4.66,-0.99,5.08
24.601,-2.36,-5.42,-1.53,6.11
24.611,-2.45,-6.12,-1.44,6.74
24.621,-2.32,-6.45,-1.24,6.97
24.631,-2.11,-6.73,-1.29,7.17
24.641,-1.76,-6.98,-1.28,7.31
24.651,-1.57,-6.90,-1.28,7.19
24.661,-1.57,-6.40,-2.04,6.90
24.672,-1.51,-6.02,-3.53,7.14
24.682,-1.01,-6.20,-5.58,8.40
24.692,0.35,-7.20,-7.06,10.09
24.702,2.51,-9.04,-6.89,11.64
24.712,5.05,-10.51,-5.14,12.75
24.722,7.60,-10.85,-2.23,13.43
24.732,10.52,-9.46,1.85,14.27
24.742,14.24,-6.65,5.90,16.78
24.752,17.79,-3.65,8.58,20.08
24.762,18.48,-2.04,10.30,21.25
24.772,16.33,-2.15,10.00,19.27
24.782,12.18,-2.77,7.75,14.70
24.792,7.65,-3.07,4.21,9.26
24.803,4.86,-2.29,0.57,5.40
24.813,3.07,-1.10,-1.69,3.68
24.823,2.79,0.22,-2.68,3.87
24.833,4.15,1.74,-2.51,5.15
24.843,5.87,2.76,-1.57,6.67
24.853,6.07,3.11,-0.30,6.83
24.863,4.62,3.40,0.73,5.78
24.873,1.77,3.51,0.70,3.99
24.883,-0.95,3.77,-0.18,3.89
24.893,-3.41,4.19,-0.79,5.46
24.903,-4.59,4.86,-1.28,6.81
24.913,-4.09,6.10,-1.35,7.47
24.923,-2.79,7.23,-0.83,7.80
24.934,-1.75,8.26,-0.32,8.45
24.944,-1.24,9.42,0.09,9.50
24.954,-0.62,10.79,0.36,10.81
24.964,0.07,12.40,0.48,12.41
24.974,1.51,14.31,0.92,14.42
24.984,2.64,15.62,1.86,15.95
24.994,3.02,16.10,3.26,16.71
25.004,2.87,16.39,4.83,17.32
25.014,2.48,16.49,6.26,17.81
25.024,1.68,15.95,6.87,17.45
25.035,0.17,14.98,7.00,16.53
25.044,-1.75,13.94,6.72,15.58
25.054,-3.24,12.64,6.42,14.54
25.065,-4.21,11.06,6.84,13.66
25.075,-4.98,9.31,7.09,12.72
25.085,-5.64,7.31,6.66,11.38
25.095,-6.05,5.16,5.61,9.73
25.105,-6.24,3.01,4.26,8.13
25.115,-6.62,1.08,2.88,7.30
25.125,-7.51,-0.48,1.20,7.62
25.135,-7.58,-2.03,0.08,7.85
25.145,-7.84,-3.16,-1.13,8.53
25.155,-8.20,-3.82,-2.19,9.30
25.165,-8.45,-4.18,-2.85,9.85
25.175,-8.52,-4.34,-3.46,10.17
25.185,-9.24,-4.31,-4.16,11.01
25.196,-10.51,-4.39,-4.85,12.38
25.206,-12.30,-4.27,-5.10,13.98
25.216,-13.66,-4.39,-4.82,15.14
25.226,-13.84,-5.09,-3.48,15.15
25.236,-13.09,-5.85,-1.84,14.46
25.246,-11.60,-6.43,-0.28,13.27
25.256,-9.68,-6.25,1.22,11.59
25.266,-7.91,-4.88,1.57,9.43
25.276,-6.33,-3.54,0.57,7.27
25.286,-5.13,-2.46,-0.39,5.70
25.296,-4.58,-1.20,-0.11,4.74
25.306,-4.77,-0.03,1.47,4.99
25.317,-3.53,1.38,3.80,5.37
25.327,1.69,3.81,4.87,6.41
25.337,9.32,7.78,4.90,13.09
25.347,19.22,14.21,4.96,24.41
25.357,30.15,20.50,3.26,36.60
25.367,39.34,23.94,0.16,46.05
25.377,43.90,24.48,-1.71,50.30
25.387,41.79,21.57,-2.49,47.10
25.397,32.28,14.55,-2.73,35.52
25.407,20.83,7.46,-2.51,22.27
25.417,11.75,2.10,-2.01,12.10
25.427,6.05,-1.69,-1.50,6.46
25.437,2.98,-3.79,-1.71,5.12
25.448,2.31,-4.87,-2.06,5.77
25.458,3.09,-5.76,-2.13,6.88
25.468,3.18,-6.53,-2.03,7.54
25.478,2.45,-7.48,-2.22,8.17
25.488,1.34,-8.39,-2.70,8.91
25.498,0.40,-8.82,-3.50,9.49
25.508,-0.23,-8.87,-4.15,9.79
25.518,-1.15,-8.96,-4.23,9.98
25.528,-2.48,-9.12,-4.00,10.27
25.538,-3.88,-9.30,-3.56,10.69
25.548,-5.02,-9.60,-2.82,11.20
25.558,-6.09,-9.98,-2.21,11.90
25.568,-7.05,-10.23,-1.92,12.57
25.579,-7.87,-10.35,-1.73,13.11
25.589,-8.44,-10.40,-1.44,13.47
25.599,-8.55,-10.41,-1.07,13.51
25.609,-8.22,-10.26,-0.60,13.16
25.619,-7.53,-10.03,-0.14,12.54
25.629,-6.61,-9.86,0.25,11.87
25.639,-5.69,-9.63,0.79,11.22
25.649,-4.89,-9.21,1.25,10.50
25.659,-3.77,-8.92,1.62,9.82
25.669,-2.10,-8.56,2.10,9.06
25.679,0.69,-7.61,1.77,7.84
25.689,4.88,-5.82,0.73,7.63
25.700,9.56,-3.58,0.75,10.24
25.710,13.00,-1.90,2.83,13.44
25.720,13.98,-1.39,5.59,15.12
25.730,13.51,-1.62,7.48,15.53
25.740,12.87,-1.74,8.41,15.47
25.750,12.49,-1.71,7.97,14.92
25.760,13.10,-1.65,6.15,14.57
25.770,14.19,-1.29,4.48,14.93
25.780,14.46,-1.37,3.64,14.97
25.790,14.34,-1.76,2.70,14.69
25.800,13.64,-2.38,1.73,13.95
25.810,11.89,-3.43,1.35,12.45
25.820,9.47,-4.42,1.12,10.51
25.831,7.30,-5.06,0.51,8.90
25.841,5.86,-5.17,0.43,7.82
25.851,4.57,-4.80,0.69,6.67
25.861,2.90,-4.06,1.49,5.21
25.871,0.73,-2.74,2.28,3.63
25.881,-1.12,-1.97,2.72,3.54
25.891,-1.35,-2.69,4.19,5.16
25.901,-0.84,-3.03,7.32,7.96
25.911,-0.02,-1.94,10.33,10.51
25.921,1.10,-0.39,11.48,11.54
25.931,2.25,1.38,9.88,10.22
25.941,1.55,3.38,6.52,7.50
25.951,-0.82,4.13,3.54,5.50
25.962,-3.51,3.59,3.68,6.22
25.972,-5.10,2.92,6.99,9.13
25.982,-4.94,2.75,10.55,11.97
25.992,-0.42,3.85,13.52,14.07
26.002,8.33,6.00,13.73,17.14
26.012,16.78,7.64,10.60,21.27
26.022,23.21,8.14,4.95,25.09
26.032,26.03,8.17,-1.44,27.32
26.042,23.73,7.41,-6.59,25.72
26.052,16.45,6.37,-9.73,20.15
26.062,7.91,5.44,-11.80,15.21
26.072,1.99,4.01,-12.92,13.68
26.082,-0.32,2.51,-12.72,12.97
26.093,0.16,1.48,-11.25,11.35
26.103,1.59,0.36,-8.79,8.94
26.113,2.16,-1.35,-5.87,6.40
26.123,1.95,-3.66,-3.12,5.19
26.133,1.45,-5.96,-1.44,6.30
26.143,0.78,-7.47,-1.82,7.73
26.153,0.01,-7.96,-3.84,8.84
26.163,-0.71,-7.51,-6.49,9.95
26.173,-1.91,-6.23,-9.12,11.21
26.183,-2.56,-5.25,-11.15,12.59
26.193,-1.38,-4.55,-12.28,13.17
26.203,1.18,-4.06,-12.07,12.79
26.214,3.44,-3.25,-10.57,11.58
26.224,4.58,-2.89,-8.94,10.46
26.234,5.03,-2.82,-7.72,9.63
26.244,4.48,-3.02,-6.62,8.54
26.254,3.72,-3.08,-5.80,7.55
26.264,3.15,-2.94,-4.97,6.57
26.274,3.09,-2.80,-4.03,5.80
26.284,3.85,-2.18,-3.33,5.54
26.294,4.87,-1.37,-2.80,5.79
26.304,5.81,-0.54,-2.52,6.35
26.314,6.97,0.33,-2.29,7.34
26.324,8.17,1.25,-2.41,8.61
26.334,9.13,2.26,-2.83,9.83
26.345,9.78,2.70,-3.27,10.66
26.355,9.92,2.77,-3.31,10.82
26.365,9.07,2.62,-2.74,9.83
26.375,7.41,2.29,-2.03,8.02
26.385,4.53,2.45,-1.56,5.38
26.395,1.12,2.88,-0.83,3.20
26.405,-2.13,3.38,-0.01,4.00
26.415,-4.86,3.85,0.19,6.20
26.425,-6.44,4.50,-0.25,7.86
26.435,-6.49,5.13,-0.44,8.28
26.445,-5.25,5.35,-0.25,7.50
26.455,-3.91,5.21,0.15,6.51
26.465,-3.17,4.67,0.43,5.67
26.475,-3.40,3.85,0.58,5.17
26.486,-4.89,2.85,0.47,5.67
26.496,-6.70,1.44,0.72,6.90
26.506,-8.22,-0.28,1.48,8.35
26.516,-8.88,-2.19,2.21,9.41
26.526,-8.09,-3.72,2.44,9.23
26.536,-5.78,-4.34,2.40,7.61
26.546,-3.33,-4.33,2.97,6.21
26.556,-1.10,-4.11,3.90,5.77
26.566,0.34,-3.69,4.92,6.16
26.576,0.61,-3.54,5.81,6.83
26.586,-0.46,-3.82,6.36,7.43
26.596,-2.00,-4.41,6.55,8.15
26.606,-3.40,-4.88,6.39,8.73
26.617,-4.20,-4.98,5.85,8.76
26.627,-3.61,-4.85,5.14,7.94
26.637,-1.67,-4.20,3.82,5.91
26.647,0.30,-3.51,2.31,4.21
26.657,1.26,-3.36,1.52,3.89
26.667,1.85,-3.18,1.16,3.86
26.677,2.61,-3.00,0.54,4.02
26.687,3.17,-2.89,0.47,4.32
26.697,4.45,-2.45,0.80,5.14
26.707,6.08,-1.55,1.30,6.41
26.717,7.41,-0.89,1.78,7.67
26.728,8.41,-0.66,2.30,8.74
26.738,9.54,-0.39,3.09,10.04
26.748,11.03,0.20,3.74,11.64
26.758,12.81,1.19,4.00,13.47
26.768,14.27,2.40,3.48,14.89
26.778,15.12,3.32,2.38,15.66
26.788,15.60,3.74,1.79,16.14
26.798,15.80,3.67,2.17,16.37
26.808,15.71,3.27,3.35,16.40
26.818,14.82,2.77,4.72,15.79
26.828,12.89,1.66,5.12,13.97
26.838,10.19,0.20,4.59,11.18
26.848,7.26,-0.91,3.50,8.11
26.858,4.82,-1.31,2.15,5.44
26.869,3.24,-1.54,1.08,3.75
26.879,2.04,-1.56,0.65,2.65
26.889,0.81,-1.45,0.71,1.81
26.899,-0.53,-1.51,0.86,1.82
26.909,-2.17,-1.90,1.02,3.06
26.919,-4.35,-2.59,0.71,5.11
26.929,-6.70,-3.49,-0.26,7.56
26.939,-8.96,-4.39,-1.76,10.13
26.949,-11.13,-5.38,-3.58,12.87
26.959,-12.75,-6.54,-5.38,15.30
26.969,-13.46,-7.53,-6.36,16.68
26.980,-12.54,-8.46,-6.22,16.35
26.989,-9.89,-8.96,-5.59,14.47
27.000,-6.04,-8.63,-4.71,11.54
27.010,-0.82,-7.56,-3.57,8.40
27.020,4.88,-5.28,-2.50,7.61
27.030,10.26,-2.36,-1.53,10.64
27.040,15.80,0.27,0.23,15.80
27.050,20.05,2.92,4.08,20.67
27.060,21.29,4.44,8.28,23.27
27.070,19.47,4.57,10.17,22.44
27.080,15.84,3.84,9.00,18.61
27.090,12.78,2.85,5.99,14.39
27.100,10.24,1.54,2.70,10.70
27.110,7.72,0.37,0.23,7.73
27.121,5.18,-0.64,-1.35,5.39
27.131,3.02,-1.42,-2.14,3.97
27.141,1.84,-1.56,-2.35,3.37
27.151,1.00,-1.47,-1.96,2.64
27.161,0.52,-1.38,-1.19,1.90
27.171,-0.15,-1.21,-0.09,1.22
27.181,-1.15,-1.25,0.94,1.94
27.191,-1.71,-0.83,1.56,2.46
27.201,-2.37,0.09,2.37,3.35
27.211,-4.29,0.29,2.20,4.83
27.221,-6.20,0.67,0.91,6.30
27.231,-7.45,0.93,-0.35,7.52
27.241,-8.07,1.10,-1.44,8.27
27.252,-7.94,1.73,-1.89,8.35
27.262,-7.65,2.54,-1.53,8.21
27.272,-7.30,3.97,-0.70,8.34
27.282,-6.94,5.68,0.23,8.98
27.292,-6.33,7.64,1.20,10.00
27.302,-5.77,9.82,2.27,11.61
27.312,-5.27,11.99,3.44,13.54
27.322,-4.88,13.79,4.76,15.38
27.332,-4.74,15.41,6.14,17.25
27.342,-4.76,17.06,7.20,19.12
27.353,-4.49,17.88,7.85,20.04
27.363,-3.72,17.25,7.96,19.36
27.372,-2.56,15.79,8.13,17.95
27.383,-1.22,13.54,8.58,16.08
27.393,-0.21,10.49,8.91,13.76
27.403,-0.05,7.15,8.99,11.49
27.413,-0.34,3.93,8.73,9.58
27.423,-0.22,1.53,8.12,8.27
27.433,0.15,-0.04,7.40,7.40
27.443,0.45,-1.20,6.54,6.67
27.453,0.59,-2.15,5.62,6.04
27.463,0.58,-2.83,4.57,5.41
27.473,0.38,-3.41,3.59,4.97
27.483,-0.21,-3.86,2.81,4.78
27.493,-1.34,-4.18,2.03,4.83
27.504,-2.97,-4.28,0.92,5.29
27.514,-4.72,-3.97,-0.71,6.21
27.524,-6.42,-3.46,-2.32,7.66
27.534,-7.79,-2.79,-3.42,8.96
27.544,-8.63,-1.87,-3.86,9.64
27.554,-9.39,-0.54,-3.83,10.16
27.564,-10.66,0.64,-4.71,11.67
27.574,-11.75,1.40,-7.24,13.87
27.584,-10.71,3.80,-10.72,15.62
27.594,-6.19,7.39,-13.19,16.34
27.604,3.06,10.39,-12.82,16.78
27.615,13.39,12.92,-9.99,21.12
27.625,20.12,13.31,-5.34,24.71
27.635,21.76,12.03,-0.25,24.86
27.645,19.44,9.85,4.06,22.17
27.655,15.95,7.84,7.32,19.22
27.665,13.21,5.89,8.99,17.03
27.675,11.24,3.81,9.67,15.31
27.685,8.90,2.02,9.15,12.92
27.695,6.82,-0.08,7.34,10.02
27.705,4.90,-2.34,5.01,7.39
27.715,2.95,-3.49,2.59,5.25
27.725,1.85,-4.06,0.46,4.49
27.735,1.58,-4.38,-1.09,4.78
27.745,1.54,-4.55,-1.94,5.18
27.755,1.55,-4.77,-2.22,5.49
27.766,1.39,-5.20,-1.99,5.74
27.776,1.13,-5.91,-1.36,6.17
27.786,0.65,-6.78,-0.83,6.86
27.796,-0.59,-7.75,-0.77,7.81
27.806,-2.42,-8.72,-1.04,9.11
27.816,-5.03,-9.68,-1.55,11.02
27.826,-8.09,-10.66,-2.32,13.58
27.836,-10.30,-11.22,-2.75,15.48
27.846,-10.71,-10.85,-3.05,15.55
27.856,-8.24,-9.59,-3.09,13.01
27.866,-2.21,-7.51,-2.28,8.15
27.876,4.36,-4.37,0.04,6.18
27.886,9.89,-0.77,3.19,10.42
27.897,13.96,1.81,6.63,15.56
27.907,16.38,3.01,9.46,19.15
27.917,16.37,3.09,10.99,19.96
27.927,14.55,1.98,11.32,18.54
27.937,11.88,0.43,10.43,15.81
27.947,9.04,-1.12,8.67,12.57
27.957,6.74,-2.32,6.13,9.40
27.967,5.32,-3.07,3.91,7.28
27.977,4.67,-3.30,2.66,6.31
27.987,4.21,-3.06,1.62,5.45
27.997,3.37,-2.57,0.86,4.32
28.007,2.15,-2.30,0.30,3.16
28.017,0.77,-2.14,-0.08,2.27
28.028,-0.39,-2.08,-0.33,2.14
28.038,-0.94,-2.29,-0.79,2.60
28.048,-1.14,-2.53,-1.24,3.04
28.058,-1.57,-2.95,-1.53,3.67
28.068,-2.24,-3.63,-1.58,4.54
28.078,-3.27,-4.43,-0.91,5.58
28.088,-4.41,-5.34,0.15,6.93
28.098,-5.24,-6.27,1.18,8.26
28.108,-6.20,-7.35,2.15,9.85
28.118,-7.37,-7.81,3.26,11.22
28.128,-8.35,-7.35,4.50,12.00
28.138,-9.08,-6.65,5.56,12.55
28.148,-8.36,-5.12,5.62,11.30
28.160,-4.16,-1.80,3.95,6.01
28.169,3.82,2.63,1.35,4.83
28.179,12.74,6.54,-0.53,14.33
28.189,17.35,8.42,-0.96,19.31
28.199,13.49,8.74,-0.10,16.07
28.209,5.83,9.82,1.41,11.50
28.219,1.73,10.41,2.94,10.95
28.229,4.17,9.12,7.11,12.29
28.239,9.44,7.48,14.31,18.71
28.250,13.36,5.92,19.24,24.16
28.260,15.78,4.88,19.94,25.89
28.269,17.43,3.61,16.72,24.42
28.280,17.36,1.90,10.06,20.16
28.289,15.27,0.51,2.81,15.53
28.300,12.16,-0.34,-2.42,12.40
28.310,8.73,-0.83,-5.67,10.44
28.320,5.62,-1.28,-7.59,9.53
28.330,3.10,-1.97,-7.80,8.62
28.340,1.25,-2.92,-6.66,7.37
28.350,0.12,-4.16,-5.20,6.66
28.360,-0.52,-5.35,-4.32,6.90
28.370,-0.81,-6.54,-4.12,7.77
28.380,-1.16,-7.16,-4.82,8.70
28.390,-1.60,-7.10,-6.37,9.67
28.400,-1.91,-6.65,-8.79,11.19
28.411,-2.85,-6.04,-11.42,13.23
28.421,-2.93,-5.33,-13.73,15.02
28.431,-1.41,-4.51,-15.50,16.20
28.441,0.69,-3.99,-16.67,17.16
28.451,3.43,-2.85,-16.66,17.25
28.461,5.86,-1.92,-15.14,16.35
28.471,8.23,-1.54,-14.27,16.54
28.481,9.98,-1.91,-13.34,16.77
28.491,10.54,-2.56,-11.52,15.83
28.501,9.79,-3.56,-8.84,13.66
28.511,8.77,-4.29,-6.19,11.56
28.521,7.77,-4.24,-3.87,9.66
28.532,7.09,-3.42,-2.23,8.18
28.542,6.73,-2.01,-1.25,7.14
28.552,6.49,-0.39,-0.43,6.51
28.562,6.81,1.54,0.40,6.99
28.572,7.27,3.49,1.13,8.14
28.582,7.02,5.02,1.40,8.75
28.592,6.34,6.54,0.89,9.15
28.602,5.58,8.19,-0.68,9.93
28.612,4.72,9.64,-2.21,10.96
28.622,3.69,10.76,-2.94,11.75
28.633,2.43,11.64,-3.10,12.29
28.643,1.44,12.18,-2.59,12.53
28.653,1.41,12.29,-1.58,12.48
28.663,2.15,11.97,-0.14,12.16
28.673,2.36,11.07,1.18,11.38
28.683,1.41,9.83,2.01,10.14
28.693,-0.53,8.43,2.49,8.81
28.703,-2.45,6.93,3.08,7.97
28.713,-3.42,5.14,4.05,7.38
28.723,-3.51,3.14,5.26,7.06
28.733,-3.13,1.11,6.50,7.30
28.743,-3.05,-1.08,7.18,7.87
28.753,-3.85,-3.31,7.25,8.85
28.763,-5.84,-5.41,6.96,10.58
28.773,-8.70,-7.21,6.50,13.03
28.783,-11.31,-8.58,6.16,15.47
28.794,-12.68,-9.54,5.90,16.93
28.804,-11.95,-9.83,5.54,16.44
28.814,-9.41,-9.26,5.02,14.12
28.824,-6.10,-7.95,4.40,10.95
28.834,-2.78,-6.32,4.04,8.00
28.844,0.40,-4.51,3.33,5.62
28.854,3.01,-2.67,1.75,4.39
28.864,4.49,-1.33,-0.34,4.69
28.874,4.95,-0.99,-1.78,5.35
28.884,5.31,-1.13,-2.71,6.07
28.894,5.79,-1.28,-2.63,6.49
28.904,7.56,-1.45,-1.09,7.77
28.915,10.35,-0.35,1.49,10.46
28.925,13.92,1.01,4.85,14.78
28.935,17.26,2.45,7.97,19.17
28.945,19.54,4.09,9.63,22.16
28.955,20.81,5.03,9.64,23.48
28.965,20.18,4.90,7.94,22.24
28.975,17.06,3.64,5.35,18.25
28.985,12.70,1.69,3.37,13.25
28.995,8.62,-0.27,1.94,8.84
29.005,5.71,-1.64,0.93,6.02
29.015,4.16,-2.46,0.53,4.86
29.025,3.36,-3.29,0.70,4.75
29.035,2.44,-4.15,1.19,4.96
29.045,1.19,-4.96,2.25,5.58
29.056,-0.25,-5.68,3.73,6.80
29.066,-1.55,-6.08,5.28,8.20
29.076,-2.47,-6.05,6.52,9.23
29.086,-3.19,-5.84,7.00,9.66
29.096,-3.99,-5.91,6.65,9.75
29.106,-5.10,-6.25,5.37,9.69
29.116,-6.33,-6.58,3.50,9.78
29.126,-7.96,-6.95,1.22,10.64
29.136,-9.94,-7.34,-1.32,12.43
29.146,-11.70,-7.84,-3.82,14.59
29.156,-12.45,-8.34,-5.80,16.07
29.166,-11.75,-8.53,-7.17,16.19
29.176,-9.60,-8.44,-7.81,14.98
29.187,-7.03,-8.45,-7.85,13.50
29.197,-3.83,-8.96,-7.11,12.06
29.207,0.62,-8.92,-5.17,10.33
29.217,5.43,-7.49,-2.18,9.51
29.227,10.56,-4.65,0.45,11.55
29.237,15.55,-0.56,2.68,15.79
29.247,20.29,4.27,4.03,21.13
29.257,24.43,8.15,4.72,26.18
29.267,25.40,9.82,4.96,27.68
29.277,20.72,9.12,4.28,23.04
29.287,13.50,6.89,2.58,15.38
29.297,7.14,4.59,0.72,8.52
29.307,2.97,2.81,-0.37,4.11
29.318,0.47,1.66,-0.88,1.94
29.328,-0.95,1.21,-0.59,1.65
29.338,-1.70,1.33,-0.37,2.19
29.348,-1.82,2.06,-0.62,2.82
29.358,-1.54,3.04,-0.87,3.52
29.368,-1.42,3.80,-1.22,4.24
29.378,-1.72,4.59,-1.31,5.08
29.388,-2.26,5.39,-1.33,5.99
29.398,-2.78,6.21,-1.07,6.89
29.410,-3.42,7.01,-0.24,7.80
29.418,-4.25,7.76,0.92,8.90
29.428,-4.84,8.57,2.51,10.16
29.438,-4.91,9.65,4.44,11.71
29.449,-4.67,10.83,6.17,13.31
29.459,-4.50,11.73,7.56,14.66
29.469,-4.82,11.95,8.47,15.42
29.479,-5.33,11.81,9.00,15.78
29.489,-5.74,11.34,9.16,15.67
29.499,-5.86,10.55,8.97,15.04
29.509,-5.56,9.41,8.53,13.86
29.519,-5.21,8.05,7.79,12.35
29.529,-4.93,6.59,6.83,10.69
29.539,-4.93,4.96,5.58,8.95
29.549,-5.04,3.38,4.37,7.48
29.559,-5.03,2.23,3.43,6.49
29.570,-4.90,1.01,2.70,5.69
29.580,-4.62,-0.27,2.25,5.15
29.590,-4.42,-1.50,2.05,5.10
29.600,-4.46,-2.67,2.00,5.57
29.610,-4.50,-3.69,2.00,6.16
29.620,-4.44,-4.42,1.86,6.54
29.630,-4.36,-4.89,1.28,6.67
29.640,-4.49,-5.03,0.02,6.74
29.650,-4.98,-4.96,-1.76,7.24
29.660,-5.65,-4.51,-3.11,7.87
29.670,-6.35,-3.71,-3.63,8.20
29.680,-6.78,-2.97,-3.33,8.12
29.690,-6.58,-2.54,-2.98,7.66
29.701,-5.80,-1.91,-3.10,6.85
29.711,-5.92,-1.26,-3.44,6.96
29.721,-6.04,-0.58,-4.62,7.63
29.731,-4.06,1.58,-4.40,6.19
29.741,1.20,4.32,-2.01,4.91
29.751,9.39,8.42,0.49,12.62
29.761,17.63,12.83,1.78,21.88
29.771,23.43,16.10,1.50,28.46
29.781,26.31,17.70,0.24,31.71
29.792,25.81,17.31,-0.26,31.08
29.802,22.60,15.70,0.96,27.54
29.811,18.35,13.53,2.77,22.97
29.822,14.29,10.44,4.31,18.21
29.832,10.96,6.60,5.07,13.76
29.842,8.46,3.47,4.82,10.34
29.852,7.05,0.64,3.61,7.94
29.862,6.27,-1.77,1.95,6.80
29.872,5.42,-3.51,0.28,6.47
29.882,4.57,-4.75,-1.21,6.71
29.892,3.56,-5.75,-2.43,7.18
29.902,2.54,-6.52,-3.11,7.66
29.912,1.42,-7.16,-3.15,7.95
29.922,0.37,-7.75,-2.68,8.21
29.932,-0.58,-8.25,-2.11,8.54
29.942,-1.44,-8.75,-1.70,9.03
29.953,-2.23,-9.20,-1.40,9.57
29.963,-3.19,-9.57,-1.13,10.15
29.973,-4.20,-9.84,-1.14,10.76
29.983,-5.11,-10.13,-1.25,11.41
29.993,-5.83,-10.28,-1.30,11.89
30.003,-6.17,-10.30,-1.28,12.08
30.013,-6.04,-10.12,-1.23,11.85
30.023,-5.72,-9.66,-0.99,11.27
30.033,-5.28,-9.15,-0.64,10.58
30.043,-4.68,-8.59,-0.29,9.79
30.053,-3.59,-7.88,-0.17,8.66
30.063,-1.56,-6.71,0.29,6.89
30.073,1.16,-4.95,1.54,5.31
30.084,4.39,-2.60,3.36,6.11
30.094,8.30,0.02,5.72,10.08
30.104,12.12,1.98,8.47,14.92
30.114,15.03,3.38,10.55,18.67
30.124,16.32,4.11,11.23,20.23
30.134,16.10,3.78,10.24,19.46
30.144,14.36,2.53,7.80,16.53
30.154,11.44,0.99,5.35,12.67
30.164,8.18,-0.82,3.46,8.92
30.174,5.30,-2.70,1.95,6.26
30.184,3.15,-4.27,0.84,5.37
30.194,1.45,-5.38,0.04,5.57
30.204,0.08,-6.25,-0.55,6.27
30.215,-1.13,-6.96,-1.05,7.13
30.224,-2.09,-7.51,-1.56,7.95
30.235,-2.80,-7.96,-2.16,8.71
30.245,-3.63,-8.12,-2.75,9.31
30.255,-5.39,-8.54,-3.44,10.66
30.265,-7.17,-9.04,-4.24,12.30
30.275,-9.10,-9.40,-4.98,14.00
30.285,-11.01,-9.89,-5.75,15.88
30.295,-12.32,-10.67,-6.23,17.45
30.305,-12.75,-11.47,-5.82,18.11
30.315,-11.94,-12.02,-3.90,17.39
30.325,-10.56,-11.82,-0.23,15.85
30.335,-9.22,-10.40,4.28,14.54
30.346,-7.29,-8.01,9.48,14.39
30.356,-3.25,-5.63,15.68,16.97
30.366,2.98,-2.10,22.42,22.72
30.376,10.48,2.40,28.39,30.35
30.386,18.14,6.37,31.94,37.28
30.396,23.66,9.63,30.92,40.11
30.406,26.48,12.00,25.80,38.87
30.416,27.42,12.43,18.45,35.31
30.426,26.42,11.59,11.34,31.00
30.437,23.36,10.37,5.02,26.05
30.446,19.08,8.86,-1.18,21.07
30.456,14.87,7.13,-6.01,17.55
30.466,11.03,5.19,-8.83,15.05
30.477,7.23,3.20,-9.85,12.63
30.487,4.02,1.15,-9.66,10.53
30.497,1.65,-0.79,-8.86,9.04
30.507,0.07,-2.26,-7.84,8.16
30.517,-0.77,-3.52,-6.91,7.79
30.527,-1.15,-4.52,-6.22,7.78
30.537,-1.47,-4.85,-6.35,8.12
30.547,-1.69,-5.14,-7.07,8.90
30.557,-1.82,-5.52,-8.02,9.90
30.567,-1.76,-5.70,-8.91,10.73
30.577,-1.74,-5.90,-9.41,11.24
30.587,-1.88,-6.19,-9.54,11.53
30.597,-1.78,-6.39,-9.61,11.67
30.608,-0.89,-6.20,-9.38,11.28
30.618,0.92,-5.73,-8.57,10.36
30.628,3.15,-4.95,-7.25,9.32
30.638,5.69,-3.50,-5.72,8.80
30.648,8.56,-1.72,-3.89,9.56
30.658,11.01,-0.12,-2.11,11.21
30.668,12.34,1.14,-0.76,12.42
30.678,12.00,1.81,-0.17,12.13
30.688,10.78,2.05,-0.54,10.98
30.698,9.10,2.04,-1.13,9.39
30.708,7.57,2.08,-1.34,7.97
30.718,6.44,2.07,-1.21,6.88
30.729,5.74,1.96,-0.66,6.10
30.739,5.25,2.08,0.15,5.65
30.749,4.97,2.17,0.92,5.50
30.759,4.41,1.93,1.29,4.98
30.769,3.63,1.76,1.60,4.34
30.779,2.72,1.74,1.90,3.74
30.789,1.99,1.81,1.91,3.30
30.799,1.45,2.13,1.97,3.24
30.809,0.54,2.76,2.11,3.52
30.819,-0.23,3.71,1.60,4.05
30.829,-0.92,4.88,0.72,5.02
30.839,-1.75,6.10,-0.24,6.35
30.850,-2.77,7.19,-1.17,7.79
30.859,-4.00,8.00,-2.08,9.18
30.870,-5.07,8.69,-2.54,10.37
30.880,-5.60,9.54,-2.29,11.30
30.890,-5.38,10.40,-1.06,11.76
30.900,-4.42,11.24,1.17,12.13
30.910,-3.00,11.38,3.52,12.29
30.920,-1.28,10.72,5.76,12.24
30.930,0.75,9.36,7.98,12.33
30.940,2.44,7.22,9.94,12.52
30.950,3.08,4.95,11.12,12.56
30.960,2.37,3.14,10.83,11.52
30.970,0.86,1.66,9.10,9.29
30.981,-0.66,0.43,6.93,6.98
30.991,-1.82,-0.62,5.06,5.41
31.001,-2.78,-1.73,3.56,4.84
31.011,-3.71,-3.00,2.54,5.41
31.021,-4.52,-4.42,1.76,6.56
31.031,-5.33,-5.77,1.03,7.92
31.041,-6.20,-7.02,0.49,9.38
31.051,-6.90,-8.29,0.25,10.79
31.061,-7.55,-9.27,0.18,11.96
31.071,-8.24,-9.95,-0.01,12.92
31.081,-8.65,-10.24,-0.14,13.40
31.091,-8.03,-10.09,0.01,12.90
31.101,-6.38,-9.51,0.63,11.47
31.111,-3.42,-8.32,1.49,9.12
31.122,1.04,-6.55,2.52,7.09
31.132,5.96,-4.41,3.99,8.42
31.142,10.69,-1.97,5.57,12.22
31.152,14.55,0.33,6.27,15.85
31.162,16.56,2.33,5.29,17.54
31.172,16.20,3.25,3.48,16.88
31.182,14.82,2.86,3.23,15.43
31.192,13.32,2.08,4.74,14.29
31.202,12.18,1.11,6.50,13.86
31.212,11.31,0.15,7.54,13.60
31.222,10.15,-0.81,7.64,12.73
31.232,8.57,-1.62,6.99,11.18
31.243,6.68,-2.35,6.00,9.28
31.253,4.91,-3.09,4.89,7.59
31.263,3.35,-3.85,3.68,6.29
31.273,1.78,-4.41,2.18,5.23
31.283,0.05,-4.73,0.46,4.75
31.293,-2.00,-5.22,-1.36,5.76
31.303,-4.33,-5.91,-3.19,7.99
31.313,-6.78,-6.91,-4.55,10.69
31.323,-8.98,-8.39,-5.31,13.39
31.333,-10.59,-10.03,-5.19,15.48
31.343,-11.47,-11.97,-3.70,16.99
31.353,-11.71,-14.04,-1.47,18.34
31.363,-11.26,-15.43,0.41,19.11
31.374,-9.33,-16.11,2.00,18.72
31.384,-5.61,-15.93,3.05,17.16
31.394,-0.50,-14.46,2.96,14.76
31.404,5.60,-11.65,1.68,13.04
31.414,11.80,-8.00,-0.66,14.27
31.424,18.58,-3.33,-3.62,19.22
31.434,23.91,1.36,-5.77,24.63
31.445,26.48,4.71,-6.57,27.69
31.454,25.83,6.61,-6.16,27.37
31.464,22.23,6.55,-4.89,23.69
31.474,17.15,5.08,-3.95,18.32
31.484,11.80,3.71,-3.74,12.93
31.494,7.62,2.72,-3.31,8.74
31.505,4.96,1.97,-2.64,5.96
31.515,3.60,1.62,-2.08,4.46
31.525,3.07,1.51,-2.35,4.15
31.535,2.80,1.57,-3.15,4.50
31.545,2.41,1.72,-3.75,4.78
31.555,1.90,1.79,-4.04,4.81
31.565,1.37,2.06,-4.19,4.86
31.575,0.83,2.46,-4.37,5.09
31.585,0.58,2.85,-4.35,5.24
31.595,0.26,3.25,-3.84,5.04
31.605,-0.55,3.66,-3.30,4.96
31.615,-1.17,4.12,-2.66,5.04
31.626,-1.35,4.70,-1.85,5.23
31.636,-1.38,5.31,-0.93,5.56
31.646,-1.44,6.29,-0.27,6.46
31.656,-1.56,7.62,0.38,7.79
31.666,-1.93,8.96,1.47,9.29
31.676,-2.62,10.13,2.73,10.82
31.686,-3.51,11.25,4.45,12.60
31.696,-4.57,12.30,6.47,14.63
31.706,-5.89,13.02,8.25,16.50
31.716,-7.27,13.64,9.62,18.21
31.726,-8.01,13.98,10.55,19.26
31.736,-8.04,14.07,10.91,19.53
31.746,-7.23,13.90,10.65,18.95
31.756,-5.98,13.76,9.90,17.98
31.767,-4.95,13.10,8.56,16.41
31.777,-4.07,12.03,6.92,14.46
31.787,-3.07,10.92,5.61,12.66
31.797,-2.18,9.80,4.49,10.99
31.807,-1.83,8.56,3.73,9.52
31.817,-1.76,7.37,3.39,8.30
31.827,-1.48,6.14,3.55,7.25
31.837,-1.12,4.80,3.85,6.26
31.847,-0.53,3.48,3.89,5.24
31.857,-0.00,2.39,3.96,4.62
31.867,0.14,1.54,3.97,4.26
31.877,0.22,0.73,3.64,3.72
31.887,0.99,0.26,3.02,3.18
31.897,1.85,0.15,2.12,2.81
31.908,1.73,0.21,0.63,1.85
31.918,0.95,0.28,-2.02,2.25
31.928,-0.46,0.44,-5.56,5.60
31.938,-2.40,0.54,-8.99,9.32
31.948,-4.35,0.83,-11.67,12.48
31.958,-5.83,1.14,-13.17,14.45
31.968,-6.16,1.02,-12.77,14.22
31.978,-4.97,0.53,-10.47,11.60
31.988,-2.21,0.49,-7.60,7.93
31.998,1.44,1.05,-5.24,5.54
32.008,5.38,1.75,-4.22,7.06
32.018,9.54,2.66,-4.13,10.73
32.029,13.41,3.42,-3.25,14.21
32.039,17.44,3.98,-0.75,17.90
32.049,20.53,4.53,2.34,21.16
32.059,21.79,5.25,3.93,22.76
32.069,21.30,5.28,3.91,22.29
32.079,19.46,4.49,3.28,20.24
32.089,16.59,3.20,2.71,17.11
32.099,13.52,1.75,2.72,13.90
32.109,11.02,0.13,2.88,11.39
32.119,8.82,-1.56,2.70,9.36
32.129,6.74,-3.12,2.18,7.74
32.139,4.85,-4.51,1.63,6.83
32.150,3.14,-5.74,1.15,6.64
32.160,1.51,-6.62,0.78,6.84
32.170,0.06,-7.13,0.52,7.15
32.180,-1.08,-7.42,0.39,7.51
32.190,-1.91,-7.61,0.54,7.86
32.200,-2.42,-7.79,0.81,8.19
32.210,-2.76,-7.84,1.06,8.38
32.220,-2.98,-7.73,1.13,8.36
32.230,-3.11,-7.52,0.86,8.18
32.240,-3.20,-7.25,0.06,7.93
32.250,-3.87,-7.05,-1.05,8.11
32.260,-5.79,-7.15,-2.21,9.46
32.271,-8.72,-7.39,-3.37,11.92
32.281,-11.80,-7.87,-3.97,14.73
32.291,-13.53,-8.56,-3.52,16.39
32.301,-12.77,-8.74,-2.34,15.65
32.311,-9.99,-8.10,-1.15,12.91
32.321,-6.51,-6.86,-0.37,9.47
32.331,-3.19,-5.54,-0.06,6.40
32.341,0.26,-4.13,-0.47,4.17
32.351,4.41,-2.44,-0.96,5.13
32.361,8.71,-0.90,0.34,8.76
32.371,11.80,-0.04,3.76,12.38
32.381,13.45,0.39,7.43,15.38
32.391,14.07,0.76,10.09,17.33
32.402,14.30,0.99,11.40,18.32
32.412,13.80,0.66,11.18,17.78
32.422,12.08,-0.15,9.67,15.47
32.432,9.65,-1.20,7.70,12.41
32.442,6.97,-2.49,5.74,9.37
32.452,4.56,-3.62,4.10,7.12
32.462,2.34,-4.46,2.95,5.84
32.472,0.52,-5.10,2.01,5.51
32.482,-0.96,-5.61,1.38,5.86
32.492,-2.27,-5.93,1.12,6.45
32.502,-3.52,-6.18,1.10,7.20
32.512,-4.90,-6.46,0.95,8.17
32.522,-6.14,-6.63,0.76,9.07
32.533,-7.31,-6.70,0.67,9.94
32.543,-8.39,-6.85,0.43,10.84
32.553,-9.33,-6.98,0.19,11.65
32.563,-10.05,-6.72,0.39,12.09
32.573,-10.34,-6.16,1.02,12.08
32.583,-10.25,-5.39,1.79,11.72
32.595,-10.12,-4.11,3.01,11.33
32.603,-7.99,-2.24,4.74,9.56
32.613,-3.42,0.53,7.54,8.30
32.623,1.92,3.85,11.02,11.83
32.633,7.65,6.33,14.81,17.83
32.644,13.91,7.80,18.32,24.29
32.654,17.83,8.69,20.34,28.41
32.664,17.91,8.72,19.61,27.96
32.674,15.39,8.09,15.96,23.60
32.684,12.88,6.95,11.39,18.54
32.694,10.99,6.10,7.62,14.70
32.704,10.06,5.39,5.04,12.48
32.714,10.09,4.69,3.60,11.70
32.724,10.49,3.76,2.93,11.53
32.734,10.64,2.64,2.06,11.15
32.744,10.49,1.55,0.49,10.61
32.754,10.23,0.92,-2.09,10.48
32.764,9.90,0.59,-5.45,11.32
32.774,8.78,0.01,-8.35,12.12
32.784,6.93,-0.63,-10.23,12.37
32.795,4.79,-1.37,-11.37,12.41
32.805,2.98,-2.15,-12.00,12.55
32.815,1.62,-2.93,-12.25,12.70
32.825,0.81,-3.68,-11.97,12.54
32.835,0.35,-4.55,-11.26,12.15
32.845,0.21,-5.54,-10.37,11.75
32.855,0.33,-6.14,-9.39,11.22
32.865,0.65,-6.13,-8.74,10.69
32.875,1.44,-5.86,-8.48,10.41
32.885,2.60,-5.34,-8.14,10.08
32.895,3.82,-4.65,-7.87,9.90
32.905,4.83,-3.72,-8.03,10.08
32.915,5.70,-2.85,-8.81,10.88
32.926,6.12,-2.37,-9.44,11.50
32.936,6.01,-1.97,-9.69,11.57
32.946,5.57,-1.55,-9.35,10.99
32.956,5.28,-1.14,-8.17,9.79
32.966,5.54,-0.57,-6.19,8.33
32.976,6.37,0.14,-3.77,7.40
32.986,7.16,1.13,-1.15,7.34
32.996,7.55,2.34,0.91,7.96
33.006,7.82,4.04,1.51,8.93
33.016,8.16,6.05,0.68,10.18
33.026,7.84,7.65,-1.01,11.00
33.036,6.83,8.89,-3.00,11.60
33.046,5.65,9.96,-4.56,12.33
33.057,4.99,10.72,-4.98,12.83
33.067,5.05,11.31,-4.10,13.05
33.077,5.12,11.77,-2.42,13.06
33.087,5.08,11.88,-0.23,12.92
33.097,5.06,11.82,2.32,13.06
33.107,4.97,11.66,4.61,13.49
33.117,5.15,11.55,6.38,14.17
33.127,5.65,11.18,7.44,14.57
33.137,6.08,10.33,7.58,14.18
33.147,5.94,9.01,7.19,12.97
33.157,5.23,7.24,6.72,11.18
33.168,4.16,5.35,6.56,9.43
33.178,2.87,3.42,6.79,8.13
33.188,1.69,1.61,7.40,7.76
33.198,0.71,-0.04,8.19,8.22
33.208,-0.11,-1.35,8.66,8.77
33.218,-0.86,-2.28,8.48,8.83
33.228,-1.38,-3.44,7.58,8.44
33.238,-2.07,-4.88,6.28,8.22
33.248,-3.55,-6.29,4.45,8.48
33.258,-5.94,-7.57,2.45,9.92
33.268,-8.53,-8.64,0.74,12.16
33.278,-10.65,-9.46,-0.45,14.25
33.288,-11.97,-10.12,-0.92,15.70
33.298,-11.96,-10.61,-0.61,16.00
33.308,-10.68,-10.67,0.33,15.10
33.319,-8.87,-10.50,1.43,13.82
33.329,-6.86,-10.37,2.27,12.63
33.339,-4.97,-10.04,2.89,11.57
33.349,-2.74,-8.89,2.66,9.68
33.359,0.33,-7.49,1.78,7.70
33.369,4.34,-6.20,1.30,7.68
33.379,8.88,-4.41,1.61,10.05
33.389,13.17,-2.90,2.61,13.73
33.399,16.68,-1.98,4.54,17.40
33.410,19.09,-1.11,6.47,20.19
33.420,20.31,-0.36,8.06,21.86
33.430,20.58,-0.11,8.95,22.44
33.439,20.03,-0.28,8.76,21.86
33.450,18.28,-0.85,7.68,19.84
33.460,15.45,-1.89,6.05,16.70
33.470,11.87,-3.14,4.47,13.06
33.480,8.21,-4.40,2.92,9.76
33.490,5.12,-5.32,1.51,7.53
33.500,2.74,-5.97,0.51,6.59
33.510,1.04,-6.64,0.30,6.73
33.520,-0.09,-7.31,0.78,7.35
33.530,-0.95,-7.75,1.70,7.99
33.540,-1.75,-7.98,2.58,8.56
33.550,-2.28,-8.00,3.07,8.86
33.561,-2.67,-7.77,3.27,8.85
33.571,-3.19,-7.34,2.54,8.39
33.581,-4.01,-6.93,0.91,8.06
33.591,-5.37,-6.62,-1.17,8.60
33.601,-7.48,-6.48,-3.69,10.56
33.611,-9.76,-6.68,-6.47,13.48
33.621,-11.19,-7.18,-8.82,15.96
33.631,-10.95,-7.79,-9.79,16.62
33.641,-9.16,-8.89,-9.87,16.14
33.651,-6.31,-9.54,-8.67,14.35
33.661,-3.34,-10.22,-6.68,12.66
33.671,0.26,-11.08,-4.67,12.02
33.681,4.73,-11.18,-2.06,12.32
33.691,10.21,-9.31,0.90,13.85
33.702,16.34,-5.58,4.16,17.76
33.712,21.89,-1.35,7.13,23.06
33.722,26.02,2.33,8.77,27.55
33.732,28.20,5.28,9.16,30.11
33.742,27.25,6.92,8.45,29.36
33.752,23.17,7.43,6.33,25.14
33.762,18.43,6.64,3.97,19.99
33.772,14.11,4.77,2.89,15.17
33.782,9.95,3.43,2.24,10.76
33.792,6.40,2.48,1.60,7.05
33.802,4.27,2.06,1.66,5.02
33.812,2.55,2.01,1.71,3.67
33.822,1.09,2.24,1.23,2.78
33.833,0.45,2.78,0.80,2.93
33.843,0.30,3.29,0.47,3.33
33.853,0.05,3.90,0.39,3.92
33.863,-0.53,4.51,0.51,4.56
33.873,-1.14,4.93,0.47,5.08
33.883,-1.76,5.33,0.73,5.66
33.893,-2.80,5.76,1.26,6.53
33.904,-3.69,6.42,2.41,7.79
33.913,-4.26,7.39,4.02,9.44
33.923,-4.33,8.44,5.67,11.06
33.933,-4.18,9.66,7.07,12.68
33.944,-4.11,10.84,7.96,14.07
33.953,-4.07,11.66,8.45,14.96
33.964,-4.34,12.30,8.73,15.69
33.974,-4.64,12.64,9.02,16.20
33.984,-5.00,12.55,9.17,16.33
33.994,-5.67,12.03,8.88,15.99
34.004,-6.61,11.15,8.11,15.28
34.014,-7.83,10.12,7.07,14.62
34.024,-8.90,8.93,5.94,13.94
34.034,-9.78,7.54,4.91,13.29
34.044,-10.46,5.99,4.16,12.76
34.054,-11.01,4.35,3.56,12.37
34.064,-11.49,2.83,2.94,12.19
34.074,-11.67,1.60,2.25,11.99
34.085,-11.29,0.68,1.70,11.44
34.095,-10.47,0.35,1.73,10.62
34.105,-9.74,0.37,2.31,10.02
34.115,-8.75,0.54,3.02,9.27
34.125,-7.36,0.46,3.91,8.34
34.135,-5.69,0.04,5.20,7.71
34.145,-4.00,-0.22,6.66,7.77
34.155,-2.73,-0.18,7.50,7.99
34.165,-1.91,0.30,6.83,7.10
34.175,-1.43,1.48,4.55,4.99
34.185,-1.83,3.39,1.54,4.15
34.195,-2.77,5.82,-0.39,6.46
34.205,-2.42,7.48,0.54,7.88
34.216,-0.48,7.82,3.33,8.51
34.226,3.44,8.61,6.90,11.56
34.236,11.49,9.69,11.80,19.11
34.246,22.31,10.82,16.15,29.59
34.256,31.72,11.72,17.30,37.98
34.266,34.65,10.82,13.55,38.75
34.276,28.99,8.89,5.41,30.80
34.288,19.41,6.89,-2.28,20.73
34.296,11.68,4.62,-6.85,14.31
34.306,6.22,2.96,-8.02,10.57
34.316,2.41,1.82,-6.38,7.06
34.326,0.84,0.37,-3.26,3.39
34.336,0.68,-1.06,-0.14,1.26
34.347,1.63,-2.26,1.66,3.24
34.357,3.47,-3.17,2.19,5.18
34.367,5.13,-3.89,1.53,6.62
34.377,6.24,-4.17,0.08,7.51
34.387,6.73,-4.13,-1.53,8.04
34.397,6.83,-4.16,-3.11,8.58
34.407,6.63,-4.15,-4.52,9.03
34.417,6.12,-4.25,-5.51,9.27
34.427,5.30,-4.49,-5.89,9.11
34.437,4.23,-4.80,-5.71,8.58
34.447,3.04,-5.27,-5.00,7.87
34.457,2.20,-5.64,-4.00,7.25
34.468,1.49,-5.90,-3.13,6.85
34.478,0.76,-6.19,-2.44,6.70
34.488,0.04,-6.53,-1.94,6.81
34.498,-0.58,-6.93,-1.63,7.15
34.508,-1.14,-7.41,-1.45,7.63
34.518,-1.80,-7.85,-1.37,8.17
34.528,-2.83,-8.40,-1.44,8.98
34.538,-4.66,-9.07,-2.01,10.39
34.548,-7.13,-9.78,-3.05,12.48
34.558,-9.17,-10.58,-3.77,14.50
34.568,-10.23,-11.14,-3.60,15.55
34.578,-10.11,-11.38,-2.71,15.46
34.588,-8.79,-11.38,-1.71,14.48
34.599,-6.26,-11.35,-0.77,12.99
34.609,-2.98,-10.61,0.28,11.02
34.619,1.42,-8.94,1.44,9.17
34.629,6.88,-6.62,3.23,10.08
34.639,12.15,-4.28,5.53,14.01
34.649,16.23,-2.29,8.19,18.32
34.659,18.80,-0.57,10.71,21.64
34.670,19.81,0.52,13.08,23.74
34.679,19.41,0.76,14.34,24.15
34.689,17.29,0.38,13.11,21.71
34.699,14.04,-0.64,10.01,17.25
34.709,10.32,-2.09,6.31,12.28
34.719,6.96,-3.53,2.89,8.32
34.730,4.11,-4.57,0.12,6.15
34.740,1.60,-5.17,-2.07,5.80
34.750,-0.64,-5.61,-3.43,6.61
34.760,-2.81,-5.87,-4.21,7.75
34.770,-4.58,-6.19,-4.64,8.99
34.780,-6.06,-6.75,-4.70,10.22
34.790,-7.51,-7.30,-4.91,11.56
34.800,-9.12,-7.78,-5.49,13.19
34.810,-10.93,-8.35,-6.35,15.15
34.820,-12.89,-9.05,-7.16,17.30
34.830,-14.65,-9.53,-7.90,19.17
34.840,-15.81,-9.47,-8.65,20.36
34.851,-15.11,-8.82,-9.19,19.76
34.861,-11.56,-7.40,-8.78,16.29
34.871,-6.36,-5.16,-6.80,10.65
34.881,0.15,-1.66,-2.76,3.23
34.891,10.06,2.44,3.97,11.09
34.901,22.29,6.92,12.86,26.65
34.911,32.42,10.00,19.65,39.21
34.921,36.24,10.19,20.84,43.03
34.932,32.00,9.26,16.40,37.13
34.941,23.52,7.85,8.98,26.37
34.951,15.78,6.06,2.39,17.07
34.961,11.27,4.12,-1.60,12.11
34.971,8.33,2.44,-3.93,9.53
34.982,5.50,0.96,-5.34,7.73
34.992,2.61,-0.08,-6.19,6.72
35.002,0.25,-0.74,-6.71,6.75
35.012,-1.27,-1.21,-6.82,7.04
35.022,-2.10,-1.56,-6.50,7.00
35.032,-2.56,-1.77,-5.97,6.73
35.042,-3.06,-2.10,-5.38,6.54
35.054,-3.53,-2.53,-4.75,6.44
35.062,-3.77,-2.75,-4.02,6.15
35.072,-3.71,-2.86,-3.10,5.61
35.082,-3.23,-2.80,-1.98,4.71
35.092,-2.45,-2.45,-0.82,3.56
35.103,-1.62,-1.86,-0.04,2.46
35.113,-0.47,-1.07,0.33,1.21
35.123,1.30,-0.00,0.78,1.52
35.133,3.27,1.17,1.70,3.87
35.143,4.93,2.32,2.89,6.16
35.153,6.37,3.36,3.94,8.20
35.163,7.84,4.07,4.64,9.98
35.173,8.63,4.60,4.62,10.82
35.183,8.20,4.92,3.95,10.34
35.193,7.00,4.72,3.24,9.04
35.203,5.53,4.18,2.86,7.50
35.213,4.10,3.70,2.89,6.23
35.223,3.00,3.30,3.12,5.45
35.234,2.36,3.03,3.47,5.18
35.243,1.96,3.04,3.51,5.04
35.254,1.94,3.41,3.25,5.10
35.264,2.30,3.97,2.77,5.36
35.274,2.96,4.43,2.06,5.71
35.284,3.71,4.76,1.17,6.14
35.294,3.72,4.98,0.20,6.22
35.304,2.61,4.72,-0.53,5.42
35.314,0.73,4.10,-0.96,4.27
35.324,-1.29,3.61,-1.02,3.96
35.334,-2.80,3.29,-0.84,4.41
35.344,-3.73,3.15,-0.38,4.90
35.354,-4.68,3.22,0.12,5.68
35.365,-6.03,3.43,0.67,6.97
35.375,-7.86,3.57,0.81,8.67
35.385,-9.67,3.39,0.27,10.25
35.395,-11.13,2.75,-0.61,11.48
35.405,-12.79,1.69,-1.46,12.98
35.415,-14.78,0.64,-2.49,15.00
35.425,-16.14,-0.21,-3.47,16.51
35.435,-15.70,-0.54,-3.94,16.20
35.445,-13.22,-0.14,-4.08,13.83
35.455,-9.20,0.93,-3.82,10.00
35.465,-4.32,2.74,-3.33,6.11
35.475,0.59,4.58,-2.27,5.14
35.485,6.99,5.41,-0.27,8.84
35.496,14.83,6.00,3.44,16.37
35.506,21.14,7.05,7.22,23.43
35.516,23.79,7.34,9.06,26.49
35.526,21.76,6.17,8.17,24.05
35.536,17.24,3.98,6.43,18.83
35.546,12.68,1.78,5.55,13.96
35.556,8.93,-0.14,4.83,10.15
35.566,6.15,-2.09,4.25,7.76
35.576,4.04,-3.77,3.38,6.47
35.586,2.55,-5.56,2.05,6.45
35.596,0.59,-7.57,-0.32,7.60
35.606,-2.70,-9.55,-3.49,10.52
35.616,-6.79,-11.47,-6.76,14.95
35.627,-10.51,-13.03,-9.68,19.34
35.637,-13.06,-14.07,-11.19,22.22
35.647,-13.29,-14.70,-10.70,22.52
35.657,-10.44,-14.53,-7.38,19.35
35.667,-6.47,-14.24,-2.09,15.79
35.677,-1.68,-13.21,3.50,13.77
35.687,4.03,-11.13,8.08,14.33
35.697,9.95,-7.92,10.45,16.46
35.707,14.42,-4.40,10.05,18.12
35.717,17.05,-1.62,7.58,18.73
35.727,17.92,0.11,4.77,18.54
35.737,17.25,0.78,3.30,17.58
35.747,15.92,0.44,3.81,16.38
35.758,14.57,-0.48,5.03,15.42
35.768,12.84,-1.44,5.40,14.00
35.778,10.61,-2.51,4.68,11.87
35.788,7.91,-3.43,2.99,9.13
35.798,5.08,-4.05,0.87,6.55
35.808,2.46,-4.34,-1.03,5.09
35.818,0.15,-4.59,-2.18,5.08
35.828,-1.64,-4.70,-2.83,5.73
35.838,-3.09,-4.83,-3.18,6.56
35.848,-4.52,-5.46,-3.26,7.80
35.858,-6.16,-6.32,-3.81,9.61
35.868,-8.35,-7.22,-5.07,12.15
35.879,-11.12,-8.71,-6.56,15.58
35.888,-13.68,-10.51,-7.65,18.87
35.899,-14.52,-11.92,-7.46,20.21
35.909,-12.92,-12.39,-6.34,18.99
35.919,-9.02,-11.92,-4.95,15.75
35.929,-2.98,-10.36,-2.82,11.14
35.939,4.34,-7.37,0.10,8.55
35.949,11.99,-2.92,3.29,12.77
35.959,19.47,1.80,6.45,20.59
35.969,24.90,5.37,8.60,26.89
35.980,26.46,8.05,8.90,29.06
35.989,23.34,9.04,7.56,26.15
35.999,18.00,7.97,5.58,20.46
36.009,13.09,6.53,3.23,14.98
36.019,9.25,5.08,0.95,10.60
36.030,6.31,3.75,-0.64,7.37
36.040,3.91,2.43,-1.33,4.79
36.050,2.38,1.38,-1.55,3.16
36.060,1.86,0.98,-1.54,2.60
36.070,1.79,0.83,-1.76,2.64
36.080,1.67,0.64,-2.22,2.84
36.090,0.98,0.86,-2.52,2.84
36.100,-0.61,0.97,-2.58,2.83
36.110,-2.30,0.84,-2.65,3.61
36.120,-3.95,0.85,-2.77,4.90
36.131,-4.85,1.06,-2.40,5.52
36.140,-5.45,1.31,-1.45,5.79
36.151,-6.09,1.62,-0.30,6.31
36.161,-6.41,2.57,0.67,6.94
36.171,-6.62,3.91,1.16,7.77
36.181,-6.28,5.44,1.70,8.48
36.191,-5.47,7.18,2.80,9.45
36.201,-4.99,9.12,4.67,11.40
36.211,-5.26,10.68,6.92,13.77
36.221,-6.27,11.82,8.78,16.01
36.231,-7.71,12.30,9.78,17.51
36.241,-9.03,12.27,10.07,18.26
36.251,-9.97,11.96,9.99,18.50
36.262,-10.45,11.24,9.79,18.20
36.271,-10.56,10.37,9.58,17.63
36.282,-9.90,9.53,9.37,16.63
36.292,-8.58,8.69,9.09,15.22
36.302,-6.67,7.94,8.70,13.54
36.312,-4.57,7.31,8.41,12.04
36.322,-2.74,6.61,8.00,10.73
36.332,-0.96,5.85,7.65,9.68
36.342,0.50,5.16,6.94,8.66
36.352,1.42,4.48,5.88,7.53
36.362,1.89,3.65,4.77,6.30
36.372,1.76,2.67,3.58,4.80
36.382,0.90,2.03,2.52,3.35
36.392,-0.82,1.45,1.41,2.18
36.403,-3.08,0.76,0.63,3.24
36.413,-5.65,0.37,-0.16,5.67
36.423,-8.88,0.27,-1.43,9.00
36.433,-11.99,-0.08,-2.25,12.19
36.443,-13.61,-0.14,-2.36,13.82
36.453,-12.45,0.69,-1.56,12.57
36.463,-8.99,1.82,0.43,9.18
36.473,-2.31,3.38,4.02,5.74
36.483,5.91,6.35,7.13,11.23
36.493,12.31,8.92,8.79,17.56
36.504,16.82,10.76,8.61,21.74
36.514,19.03,12.48,7.15,23.86
36.524,19.93,13.26,6.38,24.78
36.534,20.96,13.03,6.02,25.41
36.544,20.80,11.93,5.91,24.70
36.554,19.74,10.06,5.67,22.87
36.564,18.20,7.36,4.41,20.12
36.574,16.28,4.41,2.30,17.02
36.584,13.82,1.70,0.07,13.93
36.594,11.15,-0.47,-1.63,11.28
36.604,8.66,-2.15,-2.56,9.28
36.614,6.73,-3.36,-2.72,8.00
36.624,5.45,-4.26,-2.45,7.34
36.634,4.57,-5.00,-2.12,7.10
36.644,4.04,-5.66,-1.79,7.18
36.655,3.63,-6.30,-1.44,7.41
36.665,3.03,-6.89,-1.00,7.59
36.675,2.26,-7.36,-0.66,7.73
36.685,1.40,-7.77,-0.43,7.91
36.695,0.42,-8.19,-0.41,8.21
36.705,-0.74,-8.65,-0.69,8.71
36.715,-2.11,-9.11,-1.26,9.44
36.725,-4.00,-9.67,-1.90,10.64
36.735,-6.63,-10.22,-2.55,12.45
36.745,-9.09,-10.58,-2.95,14.26
36.755,-10.30,-10.77,-2.92,15.18
36.765,-9.80,-10.68,-2.40,14.69
36.775,-8.07,-10.19,-1.67,13.10
36.785,-5.69,-9.42,-0.89,11.04
36.796,-3.00,-8.44,-0.24,8.96
36.806,0.28,-6.94,0.64,6.97
36.816,4.43,-4.93,1.99,6.92
36.826,9.56,-2.40,3.85,10.59
36.836,14.99,0.02,6.19,16.22
36.846,18.98,1.30,8.35,20.78
36.856,20.15,1.07,9.66,22.37
36.866,18.53,0.24,9.52,20.83
36.876,14.94,-0.73,7.52,16.74
36.886,10.92,-1.59,5.34,12.26
36.896,7.50,-2.21,3.63,8.62
36.906,4.57,-2.52,2.48,5.78
36.916,2.17,-2.74,2.07,4.06
36.927,0.42,-3.01,2.04,3.66
36.937,-0.83,-3.41,1.71,3.91
36.947,-1.64,-4.14,1.12,4.59
36.957,-2.72,-5.10,0.31,5.79
36.967,-4.82,-5.99,-0.91,7.74
36.977,-7.80,-6.74,-2.59,10.63
36.987,-10.67,-7.74,-4.29,13.86
36.997,-12.65,-8.90,-5.19,16.32
37.007,-14.13,-9.75,-5.22,17.94
37.017,-14.98,-10.53,-4.72,18.91
37.027,-14.88,-11.37,-3.74,19.10
37.037,-14.02,-12.10,-2.36,18.67
37.048,-12.71,-12.30,-0.99,17.72
37.058,-11.46,-11.91,-0.20,16.53
37.068,-9.76,-11.45,-0.05,15.04
37.078,-6.50,-10.78,-0.52,12.60
37.088,-2.55,-9.14,-1.46,9.60
37.098,1.08,-7.11,-2.44,7.60
37.108,4.37,-5.37,-2.90,7.51
37.118,7.43,-3.49,-1.86,8.42
37.128,11.06,-1.57,1.05,11.22
37.138,15.28,0.45,4.94,16.06
37.149,20.60,2.74,8.80,22.56
37.159,26.47,4.83,11.76,29.37
37.169,31.01,6.59,12.68,34.15
37.179,31.39,7.51,11.21,34.17
37.189,27.67,6.90,8.30,29.70
37.199,21.79,5.18,4.70,22.89
37.209,15.19,3.09,0.70,15.52
37.219,9.09,1.18,-2.71,9.56
37.229,4.19,-0.21,-4.75,6.34
37.239,0.84,-1.03,-5.75,5.90
37.249,-0.91,-1.53,-6.01,6.27
37.259,-1.90,-1.88,-5.55,6.16
37.269,-2.70,-2.21,-4.84,5.96
37.279,-3.32,-2.54,-4.04,5.82
37.289,-3.45,-2.50,-3.27,5.37
37.300,-3.12,-2.04,-2.93,4.74
37.310,-2.63,-1.54,-2.80,4.14
37.320,-2.03,-1.04,-2.62,3.48
37.330,-1.05,-0.37,-2.42,2.67
37.340,-0.06,0.34,-2.03,2.06
37.350,0.68,1.02,-1.43,1.89
37.360,1.28,1.63,-0.45,2.12
37.370,2.02,2.04,0.88,3.00
37.380,2.76,2.63,2.20,4.40
37.390,3.58,3.71,3.24,6.09
37.400,4.93,4.82,3.96,7.95
37.410,6.50,5.60,4.54,9.71
37.421,7.17,6.33,4.70,10.65
37.431,6.82,6.76,4.24,10.49
37.441,5.76,6.73,3.41,9.49
37.451,4.35,6.54,2.67,8.30
37.461,3.10,6.53,2.27,7.58
37.471,2.35,6.70,2.26,7.45
37.481,2.01,7.09,2.44,7.76
37.491,2.13,7.37,2.36,8.03
37.501,2.31,7.68,1.96,8.25
37.511,2.31,7.80,1.19,8.22
37.521,2.25,7.82,-0.08,8.13
37.531,2.54,8.31,-1.74,8.86
37.541,3.50,9.24,-3.52,10.49
37.552,4.26,9.50,-4.76,11.45
37.562,4.36,8.80,-5.83,11.42
37.572,2.98,7.11,-6.48,10.07
37.582,0.47,4.67,-6.24,7.81
37.592,-2.02,2.00,-4.85,5.62
37.602,-4.52,-0.40,-2.55,5.20
37.612,-7.06,-2.32,-0.14,7.43
37.622,-9.84,-3.67,1.98,10.69
37.632,-12.64,-4.45,3.24,13.78
37.642,-14.75,-5.09,3.63,16.02
37.652,-15.91,-5.46,3.57,17.20
37.662,-15.47,-5.58,3.52,16.82
37.672,-12.98,-5.26,3.51,14.44
37.682,-9.66,-4.54,3.21,11.14
37.693,-6.58,-3.54,2.70,7.94
37.703,-2.82,-1.80,1.66,3.73
37.713,1.25,0.84,0.79,1.71
37.723,5.93,3.21,1.60,6.93
37.733,11.54,5.09,4.20,13.29
37.743,16.72,6.86,6.32,19.15
37.753,19.76,7.77,7.10,22.39
37.763,19.49,7.10,6.65,21.78
37.773,16.61,5.07,5.42,18.19
37.783,13.01,2.64,3.84,13.82
37.793,9.27,-0.20,1.74,9.43
37.803,4.95,-3.25,-0.62,5.96
37.814,-1.61,-6.43,-3.29,7.40
37.824,-11.06,-9.52,-7.27,16.31
37.834,-17.93,-12.08,-10.95,24.23
37.844,-18.81,-13.38,-11.98,26.00
37.854,-14.98,-14.05,-11.29,23.44
37.864,-9.58,-13.49,-8.97,18.82
37.874,-4.87,-12.66,-5.10,14.49
37.884,-1.08,-11.84,-0.29,11.89
37.894,3.09,-9.88,3.56,10.95
37.904,8.63,-7.06,4.84,12.15
37.914,13.67,-4.90,3.96,15.06
37.924,16.30,-3.75,2.28,16.88
37.934,16.88,-2.81,1.18,17.15
37.945,17.43,-1.81,1.12,17.55
37.955,18.56,-1.32,2.75,18.81
37.965,19.29,-1.50,5.52,20.12
37.975,18.22,-2.11,7.99,20.00
37.985,14.87,-3.25,9.12,17.74
37.995,10.48,-4.52,8.80,14.41
38.005,6.13,-5.83,7.45,11.27
38.015,2.31,-6.65,5.44,8.90
38.025,-0.33,-6.73,2.89,7.33
38.035,-1.87,-6.41,0.41,6.69
38.045,-2.67,-5.94,-1.55,6.69
38.055,-3.38,-5.29,-2.86,6.89
38.065,-4.15,-4.67,-3.76,7.29
38.075,-5.01,-4.55,-4.21,7.97
38.086,-5.80,-5.04,-4.27,8.79
38.096,-6.27,-5.73,-4.02,9.40
38.106,-6.28,-6.41,-3.52,9.63
38.116,-5.57,-7.02,-2.74,9.37
38.126,-4.24,-7.29,-1.76,8.61
38.136,-2.22,-6.92,-0.73,7.30
38.146,0.14,-6.07,0.20,6.07
38.156,2.65,-4.75,0.99,5.52
38.166,5.25,-2.86,1.22,6.10
38.176,7.74,-0.40,1.28,7.85
38.186,9.76,1.87,1.73,10.09
38.197,11.32,3.46,2.50,12.10
38.207,12.23,4.34,3.52,13.45
38.217,11.85,5.14,3.87,13.48
38.227,10.40,5.59,3.24,12.24
38.237,8.80,5.62,2.03,10.64
38.247,7.25,5.49,0.62,9.12
38.257,5.58,5.20,-0.25,7.63
38.267,4.10,4.76,-0.84,6.34
38.277,3.14,4.58,-1.46,5.74
38.287,2.29,4.72,-1.87,5.57
38.297,2.01,4.99,-2.22,5.82
38.307,2.15,5.37,-1.84,6.07
38.317,1.86,5.55,-1.33,6.00
38.328,0.97,5.48,-0.69,5.61
38.337,-0.55,5.36,0.17,5.39
38.348,-2.04,5.35,0.84,5.79
38.358,-3.25,5.47,1.47,6.52
38.368,-3.79,5.81,2.53,7.38
38.378,-4.17,6.30,3.61,8.37
38.388,-4.63,6.98,4.79,9.65
38.398,-5.12,7.63,6.13,11.05
38.408,-5.67,8.27,7.13,12.30
38.418,-6.51,8.73,7.92,13.46
38.428,-7.29,9.15,8.64,14.54
38.438,-7.65,9.65,9.33,15.45
38.448,-7.96,9.85,9.86,16.05
38.458,-7.94,9.77,10.42,16.35
38.469,-7.71,9.57,10.63,16.25
38.479,-7.16,9.04,10.39,15.52
38.489,-5.89,8.35,10.15,14.40
38.499,-4.88,7.36,9.88,13.25
38.509,-4.26,6.19,9.52,12.13
38.519,-3.83,4.94,9.12,11.05
38.529,-3.57,3.74,8.69,10.11
38.539,-3.16,2.52,7.83,8.82
38.549,-2.44,1.43,6.70,7.27
38.559,-1.56,0.45,5.62,5.85
38.569,-0.53,-0.39,4.58,4.62
38.579,0.58,-1.21,3.61,3.85
38.589,1.15,-2.03,2.76,3.62
38.600,0.99,-2.72,2.18,3.63
38.610,0.55,-3.19,2.00,3.81
38.620,0.37,-3.59,2.00,4.13
38.630,-0.07,-4.31,1.67,4.63
38.640,-0.88,-5.06,0.91,5.22
38.650,-1.72,-5.64,-0.24,5.90
38.660,-2.78,-5.94,-1.71,6.78
38.670,-4.14,-5.89,-3.42,7.97
38.680,-5.82,-5.80,-5.17,9.71
38.690,-7.91,-5.67,-6.59,11.75
38.700,-10.10,-5.35,-7.52,13.68
38.710,-10.82,-4.61,-7.84,14.14
38.721,-7.96,-2.99,-7.05,11.04
38.731,-1.89,-0.04,-5.45,5.77
38.741,5.57,4.01,-3.21,7.58
38.751,13.56,8.62,-0.78,16.09
38.761,20.75,13.23,0.60,24.61
38.771,26.33,16.39,0.17,31.02
38.781,28.93,17.33,-0.62,33.73
38.791,27.60,16.30,-0.14,32.05
38.801,23.01,13.40,1.24,26.65
38.811,17.39,9.43,2.29,19.91
38.821,12.05,5.67,2.37,13.53
38.831,8.28,2.70,1.64,8.86
38.841,6.00,0.58,0.67,6.07
38.852,4.60,-1.11,-0.21,4.73
38.862,3.47,-2.59,-0.98,4.44
38.872,2.26,-3.74,-1.56,4.64
38.882,1.16,-4.68,-1.92,5.19
38.892,0.31,-5.45,-2.27,5.91
38.902,-0.30,-6.12,-2.37,6.57
38.912,-0.90,-6.70,-2.02,7.05
38.922,-1.43,-7.26,-1.49,7.54
38.932,-1.85,-8.03,-0.96,8.29
38.942,-2.81,-9.22,-0.60,9.65
38.952,-5.54,-10.79,-0.63,12.15
38.962,-10.23,-12.31,-0.82,16.03
38.972,-14.80,-13.41,-0.83,19.99
38.983,-17.03,-13.90,-0.63,21.99
38.993,-15.98,-13.31,-0.52,20.81
39.003,-12.43,-11.14,-0.91,16.72
39.013,-6.92,-8.27,-1.62,10.90
39.023,0.20,-4.20,-1.51,4.47
39.033,8.75,1.18,0.05,8.83
39.043,17.49,6.36,2.56,18.78
39.053,23.73,9.13,5.16,25.94
39.064,25.69,9.41,7.04,28.25
39.073,23.16,8.04,7.80,25.73
39.083,17.72,5.61,7.32,19.97
39.093,11.65,2.92,5.84,13.36
39.104,6.43,0.90,4.17,7.71
39.113,3.05,-0.49,2.83,4.19
39.124,1.37,-1.62,1.74,2.74
39.134,0.74,-2.57,0.67,2.75
39.144,0.40,-3.25,-0.13,3.28
39.154,-0.05,-3.98,-0.64,4.03
39.164,-0.71,-4.90,-1.17,5.09
39.174,-1.53,-5.85,-1.62,6.26
39.184,-2.34,-6.84,-1.82,7.45
39.194,-3.30,-7.93,-1.67,8.75
39.204,-4.72,-9.12,-1.29,10.35
39.214,-6.74,-10.39,-0.86,12.42
39.224,-9.14,-11.62,-0.62,14.79
39.235,-11.52,-12.68,-0.47,17.14
39.245,-13.32,-13.52,-0.22,18.99
39.255,-14.50,-14.02,0.01,20.16
39.265,-14.76,-14.18,-0.10,20.46
39.275,-13.32,-14.01,-0.38,19.34
39.285,-10.49,-13.30,-0.89,16.96
39.295,-7.08,-12.37,-1.33,14.32
39.305,-3.81,-11.41,-1.51,12.13
39.315,-0.80,-10.44,-1.25,10.54
39.325,1.85,-9.41,-0.30,9.60
39.335,4.92,-8.16,1.79,9.70
39.345,8.78,-6.11,4.80,11.73
39.355,12.99,-3.59,7.61,15.48
39.366,16.04,-1.67,9.08,18.51
39.376,17.70,-0.32,8.82,19.78
39.386,18.51,0.91,6.77,19.73
39.396,19.24,2.89,3.55,19.78
39.406,20.46,4.97,0.69,21.06
39.416,22.15,6.30,-0.93,23.05
39.426,22.20,6.50,-1.23,23.17
39.436,19.21,5.46,-1.06,20.00
39.446,13.83,3.56,-1.04,14.32
39.456,7.92,1.64,-1.43,8.21
39.466,3.00,-0.09,-2.09,3.65
39.476,-0.40,-1.36,-2.90,3.23
39.486,-2.53,-2.05,-3.81,5.01
39.497,-3.65,-2.38,-4.39,6.18
39.507,-4.14,-2.59,-4.48,6.63
39.517,-4.21,-2.77,-4.26,6.60
39.527,-4.06,-3.08,-3.85,6.39
39.537,-3.84,-3.43,-3.35,6.15
39.547,-3.74,-3.69,-2.99,6.04
39.557,-3.47,-3.32,-2.84,5.58
39.567,-2.63,-2.27,-2.70,4.41
39.577,-0.97,-1.28,-1.76,2.38
39.587,1.57,0.03,0.41,1.62
39.597,4.68,1.97,3.95,6.44
39.607,7.93,4.11,7.51,11.67
39.617,10.47,6.28,9.39,15.41
39.628,11.96,8.23,9.32,17.26
39.638,12.11,9.59,7.40,17.13
39.648,11.27,10.20,4.54,15.87
39.658,9.67,9.80,1.80,13.89
39.668,7.33,8.82,-0.22,11.47
39.678,4.89,7.70,-1.29,9.21
39.688,2.94,7.02,-1.48,7.76
39.698,1.98,7.05,-1.01,7.39
39.708,1.67,7.17,-0.35,7.37
39.718,1.36,7.46,0.29,7.59
39.728,1.20,7.75,0.77,7.88
39.738,1.10,8.04,0.79,8.16
39.748,0.78,8.41,-0.10,8.45
39.759,0.10,8.83,-1.49,8.96
39.769,-0.80,9.44,-3.16,9.98
39.779,-1.53,9.70,-4.66,10.87
39.789,-2.07,9.74,-5.43,11.34
39.799,-2.43,9.86,-5.62,11.60
39.809,-2.65,9.67,-5.44,11.41
39.819,-2.57,9.15,-5.03,10.76
39.829,-2.51,8.54,-4.63,10.04
39.839,-2.63,7.40,-4.16,8.89
39.849,-2.99,5.80,-3.58,7.44
39.859,-3.56,4.03,-3.09,6.20
39.869,-4.24,2.13,-2.91,5.56
39.880,-5.20,0.43,-3.17,6.11
39.890,-6.16,-0.97,-3.81,7.30
39.900,-6.74,-2.36,-4.10,8.23
39.910,-7.17,-3.55,-3.59,8.77
39.920,-7.36,-4.53,-2.58,9.02
39.930,-6.78,-5.37,-1.00,8.71
39.940,-5.14,-5.67,1.04,7.72
39.950,-2.73,-5.13,2.73,6.42
39.960,-0.46,-4.12,4.02,5.77
39.970,1.03,-3.40,4.98,6.12
39.980,1.97,-2.91,5.08,6.17
39.990,2.09,-2.60,4.16,5.33
40.000,1.71,-2.85,2.80,4.35
40.010,1.09,-3.46,1.58,3.96
40.021,0.20,-4.19,0.73,4.26
40.031,-1.02,-4.73,-0.56,4.87
40.041,-2.42,-5.19,-2.23,6.15
40.051,-3.49,-5.68,-3.84,7.69
40.061,-3.45,-6.02,-4.98,8.54
40.071,-2.26,-6.14,-5.05,8.27
40.081,0.23,-6.32,-4.75,7.91
40.091,4.28,-6.11,-3.86,8.39
40.101,9.12,-5.61,-1.24,10.78
40.111,12.79,-5.41,2.59,14.13
40.121,13.92,-5.37,5.31,15.84
40.131,13.19,-5.31,6.49,15.63
40.142,12.14,-5.05,7.01,14.90
40.152,12.01,-4.71,7.44,14.89
40.162,13.37,-3.55,7.88,15.92
40.172,14.84,-2.53,7.83,16.97
40.182,14.92,-2.59,7.03,16.69
40.192,13.52,-3.35,6.19,15.24
40.202,11.21,-3.95,5.27,13.00
40.212,8.69,-4.50,4.25,10.67
40.222,6.18,-4.99,3.52,8.69
40.232,3.79,-5.43,3.08,7.30
40.242,1.75,-5.91,2.63,6.70
40.252,-0.05,-6.27,2.23,6.65
40.262,-1.83,-6.72,2.16,7.29
40.272,-3.42,-7.29,1.92,8.28
40.283,-4.94,-7.72,1.18,9.24
40.293,-6.36,-7.98,-0.16,10.21
40.303,-7.90,-8.42,-1.62,11.66
40.313,-9.76,-9.18,-3.11,13.76
40.323,-11.03,-9.97,-4.54,15.54
40.333,-10.70,-10.43,-5.64,15.97
40.343,-8.58,-10.46,-6.23,14.89
40.353,-5.44,-10.00,-6.31,13.01
40.363,-2.08,-9.38,-5.63,11.13
40.373,1.73,-8.76,-3.47,9.58
40.384,6.24,-7.68,0.13,9.90
40.393,11.61,-5.49,3.69,13.36
40.404,16.64,-2.25,5.91,17.81
40.414,19.74,1.07,6.60,20.84
40.424,20.27,3.34,6.41,21.52
40.434,17.83,3.82,4.96,18.90
40.444,13.86,3.08,2.68,14.45
40.454,10.09,2.20,0.58,10.35
40.464,7.11,1.79,-0.92,7.39
40.474,5.02,1.57,-1.71,5.53
40.484,3.88,1.21,-2.13,4.59
40.494,3.39,0.80,-2.16,4.10
40.504,3.08,0.53,-2.00,3.71
40.515,3.04,0.38,-1.81,3.55
40.524,3.14,0.50,-1.70,3.61
40.535,3.12,0.70,-1.35,3.47
40.545,3.25,0.90,-0.81,3.47
40.555,3.39,1.31,-0.00,3.63
40.565,3.88,1.85,1.17,4.46
40.575,4.23,2.40,2.28,5.37
40.585,4.01,2.98,3.44,6.07
40.595,3.34,3.61,4.43,6.62
40.605,2.42,4.48,4.90,7.07
40.615,1.18,5.45,4.92,7.44
40.625,-0.05,6.72,4.37,8.01
40.635,-1.11,8.32,3.80,9.22
40.646,-2.23,10.00,3.83,10.94
40.656,-3.39,11.62,4.12,12.79
40.666,-4.10,13.30,4.76,14.71
40.676,-4.06,14.79,6.13,16.52
40.686,-3.73,16.21,7.85,18.39
40.696,-3.32,17.35,9.64,20.13
40.706,-2.96,17.76,11.22,21.21
40.716,-3.03,17.45,12.10,21.45
40.726,-3.60,16.51,12.02,20.74
40.736,-4.51,14.93,11.06,19.12
40.746,-5.42,12.94,9.64,17.02
40.756,-6.26,10.80,7.94,14.79
40.766,-6.80,8.70,6.37,12.74
40.776,-6.93,6.75,5.38,11.07
40.787,-6.63,5.22,4.99,9.80
40.797,-5.77,4.01,4.94,8.59
40.807,-4.91,2.76,5.02,7.54
40.817,-4.22,1.54,4.98,6.71
40.827,-3.59,0.65,4.72,5.97
40.837,-3.16,-0.01,4.17,5.24
40.847,-2.97,-0.56,3.34,4.51
40.857,-2.93,-1.03,2.31,3.87
40.867,-3.13,-1.27,1.12,3.56
40.877,-3.74,-1.23,-0.22,3.94
40.887,-4.69,-0.81,-2.14,5.22
40.897,-6.38,-0.18,-4.77,7.97
40.907,-8.82,0.26,-7.71,11.71
40.918,-11.21,1.06,-10.15,15.16
40.928,-12.12,2.40,-10.73,16.37
40.938,-9.61,3.12,-8.00,12.89
40.948,-3.96,3.41,-2.63,5.85
40.958,3.28,4.16,3.20,6.19
40.968,10.12,5.85,7.55,13.91
40.978,15.41,7.86,8.98,19.49
40.988,19.38,9.68,9.00,23.46
40.998,22.50,10.63,9.55,26.65
41.009,23.91,10.19,10.77,28.14
41.019,22.70,8.54,11.58,26.88
41.029,19.62,5.89,10.93,23.22
41.039,16.19,3.13,9.26,18.91
41.049,13.28,0.71,7.06,15.06
41.059,10.94,-1.46,4.65,11.97
41.069,9.01,-3.11,2.24,9.79
41.079,7.30,-4.06,0.06,8.35
41.089,5.73,-4.77,-1.77,7.66
41.099,4.50,-5.35,-3.15,7.66
41.109,3.48,-5.68,-3.93,7.74
41.119,2.64,-5.97,-4.29,7.82
41.129,1.85,-6.15,-4.40,7.79
41.139,1.04,-6.20,-4.39,7.67
41.149,0.29,-6.17,-4.25,7.50
41.159,-0.38,-6.12,-3.93,7.29
41.169,-0.84,-6.09,-3.55,7.10
41.180,-1.03,-6.18,-3.05,6.97
41.189,-1.11,-6.24,-2.40,6.78
41.200,-1.22,-6.36,-1.76,6.71
41.210,-1.24,-6.61,-1.19,6.83
41.220,-1.27,-6.84,-0.78,7.01
41.230,-1.52,-7.02,-0.67,7.21
41.240,-2.45,-7.21,-0.74,7.66
41.250,-3.90,-7.41,-0.96,8.43
41.260,-5.61,-7.49,-1.19,9.43
41.270,-7.09,-7.24,-1.49,10.24
41.280,-7.08,-6.47,-1.57,9.72
41.290,-5.26,-5.20,-1.28,7.51
41.301,-0.98,-2.92,0.12,3.08
41.311,5.98,-0.86,4.13,7.32
41.321,14.18,0.72,9.64,17.16
41.331,20.58,2.20,13.65,24.80
41.341,22.99,2.87,13.82,26.98
41.351,21.49,3.08,10.14,23.96
41.361,17.63,2.33,5.62,18.65
41.371,13.36,0.54,1.71,13.49
41.381,9.07,-1.00,-1.10,9.20
41.391,5.55,-2.23,-2.49,6.48
41.401,2.92,-3.53,-2.77,5.35
41.411,0.86,-4.54,-2.75,5.38
41.421,-0.96,-5.26,-2.71,5.99
41.432,-2.58,-6.03,-2.82,7.14
41.442,-3.77,-6.60,-3.33,8.30
41.452,-4.91,-7.07,-4.05,9.51
41.462,-6.04,-7.74,-4.86,10.95
41.472,-7.57,-8.35,-5.89,12.71
41.482,-9.52,-8.90,-6.98,14.78
41.492,-11.22,-9.66,-7.69,16.68
41.502,-12.42,-10.47,-7.54,17.91
41.512,-13.13,-11.12,-6.78,18.49
41.522,-13.45,-11.48,-6.01,18.68
41.532,-12.98,-11.45,-5.25,18.09
41.542,-11.77,-10.99,-4.23,16.65
41.552,-10.20,-10.55,-2.94,14.97
41.563,-7.39,-9.50,-1.88,12.18
41.573,-3.66,-7.55,-0.60,8.41
41.583,0.65,-5.29,0.93,5.41
41.593,6.27,-2.62,2.50,7.24
41.603,11.68,0.41,4.17,12.41
41.613,14.39,2.35,5.49,15.58
41.623,14.06,2.72,5.20,15.24
41.633,12.06,2.52,3.66,12.85
41.643,10.01,1.90,2.82,10.57
41.653,8.57,1.08,2.28,8.93
41.663,7.87,0.81,1.86,8.12
41.673,8.54,1.19,1.88,8.83
41.684,9.28,1.26,1.59,9.50
41.694,8.96,0.76,1.06,9.05
41.704,7.60,0.04,0.68,7.63
41.714,5.58,-0.68,0.03,5.62
41.724,3.24,-1.46,-0.94,3.68
41.734,0.96,-2.12,-1.92,3.02
41.744,-0.98,-2.53,-2.50,3.69
41.754,-2.49,-2.78,-2.84,4.69
41.764,-3.52,-2.98,-3.09,5.55
41.774,-4.20,-2.98,-3.52,6.24
