time,ax,ay,az,atotal
0.000,0.03,-0.19,0.33,0.38
0.010,-0.01,-0.16,0.31,0.35
0.020,-0.01,-0.05,0.30,0.30
0.030,0.05,-0.04,0.28,0.29
0.040,0.15,-0.08,0.36,0.40
0.050,0.30,-0.13,0.40,0.52
0.060,0.47,-0.16,0.51,0.71
0.071,0.65,-0.29,0.68,0.98
0.081,0.75,-0.32,0.55,0.98
0.091,0.66,-0.37,0.29,0.81
0.101,0.62,-0.46,0.14,0.78
0.111,0.71,-0.53,0.24,0.92
0.121,0.79,-0.66,0.52,1.15
0.131,0.88,-0.85,0.80,1.46
0.141,0.96,-1.04,0.91,1.68
0.151,1.04,-1.15,0.93,1.81
0.161,1.02,-1.23,0.92,1.85
0.172,0.96,-1.31,0.84,1.83
0.181,0.87,-1.38,0.76,1.80
0.192,0.82,-1.41,0.77,1.80
0.202,0.71,-1.44,0.79,1.79
0.212,0.56,-1.48,0.73,1.74
0.222,0.39,-1.51,0.61,1.67
0.232,0.08,-1.60,0.52,1.68
0.242,-0.14,-1.71,0.48,1.78
0.252,-0.13,-1.67,0.39,1.72
0.262,-0.01,-1.52,0.23,1.53
0.272,0.09,-1.31,-0.03,1.32
0.282,0.07,-1.11,-0.43,1.19
0.292,-0.05,-0.94,-0.82,1.25
0.302,-0.20,-0.81,-1.08,1.36
0.313,-0.42,-0.73,-1.08,1.37
0.322,-0.70,-0.80,-0.54,1.19
0.333,-1.00,-1.01,0.36,1.47
0.343,-1.16,-1.18,1.17,2.03
0.353,-1.18,-1.19,1.68,2.38
0.363,-0.98,-1.24,1.81,2.41
0.373,-0.75,-1.08,1.64,2.10
0.383,-0.54,-0.80,1.30,1.62
0.393,-0.22,-0.44,0.92,1.04
0.403,0.09,-0.20,0.38,0.44
0.413,0.27,-0.08,-0.23,0.37
0.423,0.13,-0.02,-0.70,0.71
0.433,-0.23,-0.13,-0.84,0.88
0.443,-0.61,-0.40,-0.66,0.98
0.454,-0.76,-0.64,-0.22,1.02
0.464,-0.78,-0.80,0.29,1.15
0.474,-0.64,-0.82,0.69,1.25
0.484,-0.35,-0.75,0.89,1.22
0.494,0.03,-0.66,0.85,1.07
0.504,0.44,-0.46,0.49,0.81
0.514,0.70,-0.24,-0.07,0.74
0.524,0.70,-0.14,-0.43,0.84
0.534,0.50,-0.32,-0.51,0.78
0.544,0.26,-0.68,-0.65,0.98
0.554,-0.06,-1.02,-0.91,1.37
0.564,-0.54,-1.37,-1.28,1.95
0.575,-1.10,-1.36,-1.15,2.10
0.585,-1.27,-1.21,-0.86,1.95
0.595,-1.08,-1.30,-0.57,1.79
0.605,-0.61,-1.34,-0.45,1.55
0.615,0.12,-1.21,-0.29,1.25
0.625,0.85,-1.14,-0.28,1.44
0.635,1.25,-0.99,-0.11,1.60
0.645,1.33,-0.67,0.42,1.54
0.655,1.28,-0.50,1.08,1.75
0.665,1.23,-0.62,1.64,2.15
0.675,1.22,-0.86,2.15,2.62
0.685,1.13,-1.10,2.33,2.82
0.696,0.77,-1.24,2.31,2.73
0.705,0.39,-1.19,2.22,2.55
0.716,0.31,-0.95,2.09,2.32
0.726,0.52,-0.57,1.93,2.07
0.736,0.72,-0.24,1.55,1.73
0.746,0.80,0.09,1.06,1.33
0.756,0.77,0.47,0.53,1.05
0.766,0.70,0.76,0.07,1.03
0.776,0.58,0.92,-0.18,1.10
0.786,0.48,1.03,-0.24,1.17
0.796,0.39,1.00,-0.29,1.11
0.806,0.18,0.83,-0.14,0.86
0.816,-0.18,0.51,0.09,0.55
0.826,-0.59,0.10,0.24,0.64
0.837,-0.78,-0.22,0.32,0.87
0.847,-0.75,-0.39,0.34,0.92
0.857,-0.50,-0.38,0.13,0.64
0.867,-0.24,-0.40,-0.23,0.52
0.877,-0.19,-0.73,-0.57,0.95
0.887,-0.70,-1.64,-1.03,2.06
0.897,-1.37,-2.47,-1.45,3.17
0.907,-1.79,-3.16,-1.84,4.07
0.917,-1.56,-3.13,-1.96,4.01
0.927,-0.64,-2.41,-1.72,3.03
0.937,0.35,-2.46,-1.72,3.02
0.947,0.98,-3.29,-1.85,3.89
0.958,0.99,-3.95,-2.38,4.71
0.967,0.56,-4.15,-3.07,5.19
0.978,0.04,-4.12,-3.48,5.39
0.988,-0.37,-4.04,-3.24,5.19
0.998,-0.91,-4.18,-2.13,4.78
1.008,-0.36,-4.42,-0.19,4.44
1.018,1.74,-4.18,2.35,5.10
1.028,4.52,-2.61,5.58,7.64
1.038,6.81,-0.97,8.38,10.84
1.048,7.72,-0.63,9.75,12.45
1.058,7.59,0.19,9.88,12.46
1.068,7.05,1.35,9.05,11.55
1.079,5.77,1.92,7.72,9.83
1.088,4.13,2.02,5.94,7.51
1.099,2.26,2.13,3.88,4.97
1.109,0.28,2.42,1.44,2.83
1.119,-1.37,2.82,-1.21,3.36
1.129,-2.77,3.36,-3.39,5.52
1.139,-4.07,3.30,-5.20,7.38
1.149,-4.93,3.34,-6.50,8.81
1.159,-5.31,3.12,-7.11,9.41
1.169,-5.68,2.13,-7.33,9.51
1.179,-5.50,1.10,-7.48,9.35
1.189,-4.49,0.63,-7.56,8.82
1.199,-3.14,0.41,-7.57,8.21
1.209,-1.63,0.49,-7.35,7.54
1.219,-1.52,0.73,-6.94,7.14
1.229,-3.13,1.93,-6.63,7.58
1.240,-4.80,2.68,-6.67,8.64
1.250,-4.97,2.25,-7.04,8.91
1.260,-3.62,2.08,-7.16,8.29
1.270,-1.53,2.75,-6.17,6.93
1.280,0.97,3.12,-3.96,5.13
1.290,2.89,3.69,-0.52,4.72
1.300,4.59,5.29,5.04,8.64
1.310,6.94,5.31,6.06,10.63
1.320,8.15,5.34,6.35,11.63
1.330,7.30,5.64,5.71,10.85
1.340,5.22,5.89,4.55,9.09
1.351,3.23,5.47,3.17,7.10
1.361,1.90,4.67,2.36,5.57
1.371,1.16,3.72,2.10,4.43
1.381,0.80,2.94,2.00,3.64
1.391,0.60,2.11,1.85,2.87
1.401,0.17,1.12,1.48,1.86
1.411,-0.51,0.17,0.57,0.78
1.421,-1.24,-0.87,-0.81,1.72
1.431,-2.21,-1.31,-2.32,3.46
1.441,-3.62,-0.92,-3.69,5.25
1.451,-4.81,-0.99,-4.43,6.62
1.461,-6.48,-1.59,-4.62,8.12
1.471,-8.11,-1.70,-4.56,9.46
1.482,-8.92,-1.11,-4.41,10.01
1.492,-9.19,-0.46,-4.21,10.12
1.502,-9.12,0.05,-3.83,9.89
1.512,-8.59,0.57,-1.85,8.81
1.522,-4.93,1.63,0.95,5.28
1.532,-0.01,2.15,3.67,4.25
1.542,4.25,2.35,6.38,8.02
1.552,6.89,3.27,8.45,11.38
1.562,5.48,6.21,5.19,9.77
1.572,1.98,7.09,2.78,7.87
1.582,0.08,4.92,5.52,7.40
1.592,-1.86,4.02,4.94,6.63
1.603,-2.75,4.12,3.35,5.98
1.613,-1.53,3.31,3.33,4.93
1.623,0.34,2.03,3.36,3.94
1.633,1.73,1.06,3.59,4.12
1.643,2.60,0.13,3.58,4.42
1.653,3.34,-1.03,2.92,4.55
1.663,4.53,-2.86,1.80,5.65
1.673,4.33,-3.56,0.23,5.61
1.683,1.87,-3.06,-1.01,3.73
1.693,-1.28,-2.53,-1.98,3.46
1.703,-3.45,-2.54,-2.85,5.15
1.713,-4.50,-2.46,-2.95,5.91
1.724,-4.80,-3.29,-2.99,6.54
1.733,-4.89,-4.69,-3.15,7.47
1.744,-4.96,-5.12,-3.50,7.94
1.754,-4.81,-4.56,-4.01,7.74
1.764,-4.16,-4.11,-4.54,7.40
1.774,-2.22,-4.16,-4.49,6.51
1.784,0.04,-3.77,-3.65,5.25
1.794,1.76,-3.14,-2.91,4.63
1.804,3.37,-2.92,-1.59,4.74
1.814,4.56,-2.99,1.14,5.57
1.824,3.62,-2.45,4.08,5.98
1.834,4.92,-1.95,2.62,5.90
1.844,5.32,-2.17,2.22,6.16
1.854,5.03,-2.27,1.73,5.78
1.865,4.45,-2.02,1.62,5.15
1.875,3.91,-1.87,1.78,4.68
1.885,3.78,-1.81,1.66,4.51
1.895,3.80,-1.62,1.48,4.39
1.905,3.94,-1.54,1.38,4.45
1.915,3.98,-1.49,1.14,4.40
1.925,3.82,-1.50,0.73,4.17
1.935,3.49,-1.53,0.22,3.81
1.945,2.91,-1.51,-0.35,3.30
1.955,2.38,-1.58,-0.78,2.96
1.965,2.01,-1.73,-1.25,2.93
1.975,1.91,-1.77,-1.56,3.04
1.988,1.96,-1.77,-1.48,3.02
1.996,2.07,-1.85,-1.24,3.04
2.006,2.01,-1.96,-0.70,2.89
2.016,1.55,-2.46,-0.33,2.92
2.026,0.28,-2.42,-0.12,2.44
2.036,-0.92,-1.86,-0.34,2.11
2.046,-2.25,-1.67,-0.95,2.96
2.056,-3.89,-1.47,-1.33,4.37
2.066,-5.51,-0.69,-1.49,5.75
2.076,-6.28,0.53,-1.46,6.47
2.086,-6.22,2.14,-1.22,6.69
2.096,-5.52,3.97,-1.03,6.88
2.106,-4.01,6.06,-0.89,7.32
2.116,-1.87,8.30,-0.54,8.52
2.127,-0.07,9.96,0.08,9.96
2.137,1.10,10.66,2.12,10.92
2.147,2.35,10.67,5.19,12.10
2.157,4.16,9.86,6.26,12.40
2.167,5.42,8.57,8.17,13.03
2.177,5.93,7.60,8.92,13.13
2.187,5.53,6.41,9.01,12.36
2.197,4.57,4.88,8.13,10.52
2.207,3.06,3.25,6.50,7.88
2.217,1.54,1.79,4.66,5.22
2.227,0.31,0.66,2.93,3.02
2.237,-0.74,-0.27,1.47,1.67
2.248,-1.57,-1.12,0.62,2.02
2.258,-2.09,-2.00,0.20,2.90
2.268,-2.55,-2.81,-0.10,3.80
2.278,-2.81,-3.64,-0.62,4.64
2.288,-3.14,-4.40,-1.16,5.53
2.298,-3.76,-5.20,-1.55,6.61
2.308,-3.62,-5.56,-2.05,6.94
2.318,-2.94,-4.85,-2.55,6.22
2.328,-2.14,-3.83,-2.79,5.20
2.338,-1.32,-3.14,-2.59,4.28
2.348,-0.51,-2.85,-2.15,3.60
2.358,0.17,-2.51,-1.31,2.84
2.369,0.80,-1.97,-0.36,2.16
2.378,1.57,-1.42,0.59,2.20
2.389,2.40,-0.99,1.38,2.94
2.399,3.00,-0.73,1.94,3.64
2.409,3.16,-0.81,2.15,3.91
2.419,2.83,-1.08,1.97,3.62
2.429,2.29,-1.36,2.08,3.38
2.439,1.70,-1.48,2.15,3.12
2.449,1.39,-1.81,1.89,2.96
2.459,1.30,-2.25,1.80,3.17
2.469,1.30,-2.58,1.81,3.41
2.479,1.48,-2.97,1.83,3.79
2.489,1.86,-3.43,1.98,4.38
2.499,2.35,-3.86,1.96,4.93
2.510,2.75,-4.04,1.51,5.11
2.520,2.53,-3.61,0.99,4.52
2.530,1.87,-3.33,0.52,3.85
2.540,1.18,-3.43,0.08,3.62
2.550,0.19,-3.46,-0.51,3.50
2.560,-0.79,-3.38,-1.24,3.69
2.570,-1.59,-3.38,-1.86,4.17
2.580,-1.85,-3.66,-2.39,4.75
2.590,-1.72,-3.94,-2.81,5.13
2.600,-1.28,-4.08,-2.98,5.21
2.610,-0.79,-4.12,-3.02,5.17
2.620,-0.01,-4.01,-2.91,4.95
2.631,0.92,-3.88,-2.43,4.67
2.640,1.70,-3.41,-1.54,4.11
2.651,2.79,-2.50,-0.43,3.77
2.661,3.89,-1.29,0.90,4.20
2.671,5.23,-0.16,2.16,5.66
2.681,6.58,0.78,3.48,7.48
2.691,7.73,1.68,4.90,9.31
2.701,8.42,2.79,6.09,10.76
2.713,8.45,3.43,6.99,11.49
2.721,7.41,3.53,6.94,10.75
2.731,5.66,3.34,5.83,8.79
2.741,4.27,3.20,4.22,6.80
2.752,2.96,3.05,2.75,5.06
2.761,1.70,3.17,1.45,3.88
2.772,0.73,3.37,0.54,3.49
2.782,0.15,3.46,-0.14,3.47
2.792,-0.19,3.53,-0.84,3.64
2.802,-0.51,3.62,-1.67,4.02
2.812,-0.86,3.73,-2.29,4.46
2.822,-1.20,3.80,-2.42,4.66
2.832,-1.78,3.73,-2.64,4.91
2.842,-2.20,3.52,-3.19,5.24
2.852,-2.94,3.01,-3.70,5.61
2.862,-3.18,3.18,-3.36,5.62
2.872,-3.87,2.87,-3.03,5.69
2.882,-4.57,2.11,-2.80,5.76
2.893,-4.78,2.00,-2.26,5.65
2.903,-5.06,1.89,-1.45,5.59
2.913,-5.31,1.96,-0.58,5.69
2.923,-5.26,2.28,-0.02,5.73
2.933,-4.82,2.39,0.21,5.39
2.943,-4.30,2.37,0.23,4.91
2.953,-4.09,2.23,0.11,4.66
2.963,-4.38,1.86,0.72,4.81
2.973,-4.79,1.63,0.60,5.09
2.983,-4.52,1.32,-0.27,4.72
2.993,-4.06,0.75,-0.15,4.13
3.003,-3.99,0.48,-0.23,4.02
3.013,-4.15,0.18,-0.16,4.15
3.023,-3.99,-0.26,-0.37,4.01
3.034,-3.60,-0.61,-0.52,3.69
3.044,-3.15,-0.93,-0.46,3.32
3.054,-2.65,-1.39,-0.22,3.00
3.064,-1.98,-2.09,0.05,2.88
3.074,-1.42,-2.90,0.19,3.23
3.084,-1.28,-3.77,0.11,3.99
3.094,-1.49,-4.54,-0.10,4.78
3.104,-1.83,-5.10,-0.36,5.43
3.114,-2.24,-5.49,-0.46,5.95
3.124,-2.71,-5.59,-0.28,6.22
3.134,-2.89,-5.44,-0.04,6.16
3.144,-2.62,-5.18,0.33,5.81
3.155,-1.93,-4.90,0.70,5.31
3.165,-0.91,-4.34,0.85,4.52
3.175,0.84,-3.42,0.87,3.63
3.185,2.71,-2.27,0.91,3.65
3.195,4.69,-0.88,1.21,4.92
3.205,6.98,0.47,1.72,7.21
3.215,8.61,1.84,2.09,9.05
3.225,9.16,3.02,1.89,9.83
3.235,9.32,3.56,1.42,10.08
3.245,8.93,3.79,1.10,9.77
3.255,7.98,3.67,0.73,8.81
3.265,6.85,3.22,0.32,7.58
3.276,5.96,2.94,0.13,6.65
3.285,4.76,2.13,-0.32,5.23
3.296,3.33,1.37,-0.89,3.71
3.306,2.19,1.20,-1.36,2.84
3.316,1.50,1.34,-1.43,2.47
3.326,1.43,1.48,-1.14,2.35
3.336,1.52,1.59,-0.92,2.38
3.346,1.14,1.60,-1.08,2.24
3.356,0.31,1.51,-1.44,2.11
3.366,-0.47,1.42,-1.96,2.46
3.376,-0.84,1.27,-2.43,2.86
3.386,-1.00,1.23,-2.62,3.07
3.396,-1.16,1.26,-2.87,3.34
3.406,-1.48,1.08,-3.15,3.64
3.417,-1.71,0.92,-3.19,3.73
3.427,-1.63,0.85,-2.96,3.48
3.437,-1.46,0.66,-2.47,2.95
3.447,-1.54,0.24,-2.07,2.60
3.457,-1.62,-0.28,-1.81,2.44
3.467,-1.75,-0.64,-1.50,2.39
3.477,-1.81,-0.77,-1.13,2.26
3.487,-1.64,-0.75,-0.77,1.96
3.497,-1.16,-0.40,-0.35,1.28
3.507,-0.68,0.17,-0.03,0.70
3.517,-0.31,0.54,0.33,0.70
3.527,-0.31,0.83,0.59,1.06
3.538,-0.41,1.10,0.75,1.39
3.548,-0.35,1.33,0.73,1.55
3.558,-0.15,1.62,0.33,1.66
3.568,0.12,1.93,-0.22,1.95
3.578,0.13,1.96,-0.84,2.14
3.588,0.02,1.77,-1.42,2.27
3.598,0.04,1.48,-1.69,2.25
3.608,-0.01,1.01,-1.58,1.87
3.618,-0.39,0.35,-1.21,1.32
3.628,-0.81,-0.33,-0.67,1.10
3.638,-1.18,-0.92,-0.08,1.50
3.648,-1.41,-1.38,0.39,2.01
3.659,-1.40,-1.68,0.71,2.30
3.668,-1.42,-1.84,0.86,2.48
3.679,-1.57,-1.98,0.77,2.65
3.689,-1.87,-2.11,0.37,2.84
3.699,-2.47,-2.33,-0.32,3.41
3.709,-3.07,-2.41,-1.16,4.07
3.719,-3.46,-2.42,-1.92,4.64
3.729,-3.67,-2.37,-2.43,5.00
3.739,-3.83,-2.49,-2.71,5.31
3.749,-3.98,-2.82,-2.67,5.56
3.759,-4.08,-3.12,-2.45,5.69
3.769,-4.03,-3.35,-2.10,5.65
3.779,-3.84,-3.54,-1.61,5.46
3.789,-3.57,-3.58,-1.20,5.19
3.800,-3.34,-3.30,-0.77,4.76
3.810,-3.31,-2.93,-0.35,4.43
3.820,-3.73,-2.75,-0.29,4.65
3.830,-4.71,-2.58,-0.77,5.43
3.840,-5.53,-2.41,-1.42,6.20
3.850,-5.63,-2.38,-1.83,6.38
3.860,-4.49,-2.23,-1.43,5.21
3.870,-1.82,-2.25,-0.19,2.90
3.880,0.79,-2.36,1.33,2.82
3.890,2.74,-2.37,2.90,4.64
3.900,3.76,-2.32,4.33,6.18
3.910,3.83,-2.55,5.02,6.81
3.921,3.02,-2.66,5.05,6.45
3.931,2.27,-2.46,4.92,5.95
3.941,1.79,-2.25,4.70,5.51
3.951,1.55,-2.12,3.88,4.69
3.961,1.74,-2.08,2.68,3.81
3.971,2.03,-2.30,1.33,3.34
3.981,2.11,-2.37,0.09,3.17
3.991,2.28,-2.29,-0.43,3.26
4.001,2.71,-2.07,-0.36,3.43
4.011,3.34,-1.42,0.25,3.64
4.021,3.84,-0.82,1.31,4.14
4.031,4.38,-0.11,1.97,4.80
4.042,5.09,0.52,2.21,5.58
4.051,5.90,0.94,2.57,6.51
4.062,6.21,1.58,2.78,6.98
4.072,6.06,2.14,2.77,7.00
4.082,5.47,2.03,2.97,6.54
4.092,4.61,1.85,3.09,5.85
4.102,3.71,1.94,2.85,5.06
4.112,2.77,1.92,2.31,4.08
4.122,1.91,1.92,1.69,3.19
4.132,1.55,2.20,1.36,3.02
4.142,1.54,2.70,1.29,3.37
4.152,1.82,3.35,1.48,4.09
4.162,2.34,4.00,1.67,4.92
4.172,2.61,4.38,1.95,5.45
4.182,2.62,4.44,2.01,5.53
4.193,2.39,4.33,2.06,5.36
4.203,1.71,4.30,1.94,5.02
4.213,0.90,4.08,1.60,4.48
4.223,0.16,3.77,1.46,4.05
4.233,-0.38,3.50,1.23,3.73
4.243,-0.73,3.18,0.89,3.38
4.253,-1.09,2.56,0.75,2.88
4.263,-1.21,1.93,0.74,2.39
4.273,-0.96,1.53,0.98,2.05
4.283,-0.60,1.04,1.44,1.88
4.293,-0.39,0.58,1.45,1.61
4.303,-0.59,0.36,1.06,1.26
4.313,-1.24,0.25,0.67,1.43
4.324,-2.09,0.10,0.43,2.14
4.334,-3.16,-0.10,-0.01,3.16
4.344,-4.14,-0.06,-0.27,4.15
4.354,-5.10,0.07,-0.16,5.10
4.364,-5.61,0.16,0.04,5.61
4.374,-5.39,0.52,0.09,5.42
4.384,-4.47,1.07,0.28,4.61
4.394,-3.24,1.62,0.62,3.67
4.404,-2.21,1.98,0.38,2.99
4.414,-1.38,2.13,-0.08,2.54
4.424,-1.22,1.99,-0.70,2.44
4.434,-1.58,1.62,-1.22,2.57
4.444,-1.78,0.95,-1.34,2.42
4.454,-1.73,0.23,-1.00,2.01
4.465,-1.40,-0.43,-0.19,1.48
4.475,-1.06,-1.08,0.66,1.65
4.485,-0.71,-1.65,1.34,2.24
4.495,-0.51,-2.07,1.71,2.73
4.505,-0.40,-2.34,1.51,2.81
4.515,-0.17,-2.60,1.04,2.81
4.525,0.24,-2.70,0.51,2.76
4.535,0.53,-2.78,-0.05,2.83
4.545,0.45,-2.89,-0.54,2.97
4.555,0.28,-2.98,-0.97,3.14
4.566,0.01,-3.27,-1.30,3.52
4.576,-0.45,-3.55,-1.53,3.90
4.586,-1.38,-3.97,-1.62,4.50
4.596,-2.25,-4.13,-1.37,4.90
4.606,-1.75,-3.15,-1.34,3.85
4.616,-1.35,-2.86,-0.99,3.31
4.626,-0.87,-2.48,-0.44,2.67
4.636,-0.40,-1.99,0.05,2.03
4.646,0.15,-1.69,0.42,1.75
4.656,0.73,-1.36,0.64,1.67
4.666,1.15,-1.07,0.66,1.71
4.676,1.44,-0.90,0.51,1.77
4.686,1.50,-0.70,0.45,1.72
4.696,1.39,-0.68,0.82,1.75
4.707,1.40,-0.77,2.16,2.68
4.717,3.15,-0.80,5.57,6.45
4.727,3.53,-0.17,4.23,5.51
4.737,4.20,-0.10,3.77,5.64
4.747,4.19,-0.42,2.70,5.00
4.757,4.20,-0.21,1.45,4.44
4.767,4.55,-0.17,0.68,4.60
4.777,4.65,-0.37,0.33,4.67
4.787,4.28,-0.64,0.46,4.35
4.797,3.69,-1.16,0.81,3.95
4.807,3.07,-1.67,1.13,3.68
4.817,2.11,-2.17,1.25,3.27
4.828,0.81,-2.70,1.03,3.00
4.837,-0.25,-3.06,0.54,3.11
4.848,-0.78,-3.22,-0.02,3.31
4.858,-1.29,-3.61,-0.67,3.89
4.868,-0.43,-2.37,-1.15,2.67
4.878,-0.16,-2.08,-1.90,2.82
4.888,-0.35,-1.83,-2.82,3.38
4.898,-0.27,-1.25,-3.54,3.76
4.908,-0.21,-0.82,-3.88,3.97
4.918,0.05,-0.29,-3.50,3.52
4.928,0.83,0.14,-2.55,2.68
4.938,2.61,0.74,-1.16,2.95
4.949,4.76,1.83,0.93,5.18
4.959,6.72,2.99,3.21,8.03
4.969,8.36,3.76,4.56,10.24
4.979,8.90,4.30,4.76,10.97
4.989,8.20,4.20,3.84,9.98
4.999,7.05,3.62,2.47,8.30
5.009,5.89,3.13,1.56,6.85
5.019,4.93,2.60,1.25,5.71
5.029,3.83,1.75,1.34,4.42
5.039,2.43,1.02,1.26,2.92
5.049,1.28,0.22,0.64,1.45
5.059,0.34,-0.25,0.20,0.47
5.069,-0.41,-0.36,-0.10,0.55
5.079,-0.39,-0.38,-0.53,0.76
5.090,-0.33,-0.12,-0.85,0.92
5.099,-0.19,0.26,-1.13,1.18
5.110,-0.16,0.57,-1.39,1.51
5.120,-0.26,0.83,-1.71,1.92
5.130,-0.54,0.97,-2.11,2.39
5.140,-0.98,1.00,-2.36,2.74
5.150,-1.64,0.87,-2.39,3.03
5.160,-2.36,0.78,-2.36,3.42
5.170,-3.01,0.66,-2.37,3.89
5.180,-3.75,0.74,-2.20,4.41
5.190,-4.49,0.98,-1.84,4.95
5.200,-5.18,1.11,-1.40,5.47
5.210,-5.49,1.25,-0.92,5.71
5.220,-5.58,1.54,-0.53,5.82
5.231,-5.45,1.91,-0.22,5.78
5.241,-5.16,2.23,-0.03,5.62
5.251,-4.74,2.51,0.17,5.36
5.261,-4.35,2.74,0.37,5.16
5.271,-4.27,2.84,0.43,5.14
5.281,-4.35,2.73,0.26,5.14
5.291,-4.55,2.50,0.23,5.20
5.301,-4.71,2.25,0.73,5.27
5.311,-4.58,1.86,1.18,5.08
5.321,-4.50,1.43,1.48,4.95
5.331,-4.32,0.83,1.93,4.80
5.341,-3.88,0.12,2.19,4.45
5.352,-3.45,-0.42,2.49,4.27
5.362,-3.03,-0.85,2.71,4.15
5.372,-2.52,-1.14,2.87,3.99
5.382,-2.06,-1.28,2.81,3.71
5.392,-1.71,-1.37,2.48,3.31
5.402,-1.48,-1.44,2.00,2.87
5.412,-1.59,-1.45,1.44,2.59
5.422,-1.92,-1.46,0.90,2.58
5.432,-2.21,-1.40,0.32,2.63
5.442,-2.29,-1.22,-0.18,2.60
5.452,-2.12,-0.93,-0.45,2.36
5.462,-1.73,-0.60,-0.26,1.84
5.473,-0.88,-0.05,0.12,0.88
5.482,0.18,0.64,0.45,0.80
5.493,1.31,1.37,0.67,2.01
5.503,2.50,2.12,0.81,3.38
5.513,3.25,2.70,0.70,4.29
5.523,3.75,3.01,0.57,4.84
5.533,4.20,3.01,0.37,5.18
5.543,4.29,2.85,-0.04,5.15
5.553,4.04,2.52,-0.53,4.79
5.563,3.69,2.02,-0.81,4.28
5.573,3.29,1.63,-0.90,3.78
5.583,2.96,1.20,-0.84,3.30
5.594,2.73,0.69,-0.48,2.85
5.603,2.66,0.18,0.18,2.67
5.614,2.69,-0.30,0.83,2.83
5.624,2.46,-0.78,1.20,2.84
5.634,1.99,-1.22,1.15,2.60
5.644,1.32,-1.54,0.80,2.18
5.654,0.68,-1.84,0.12,1.96
5.664,0.03,-2.06,-0.53,2.12
5.674,-0.49,-2.21,-1.07,2.51
5.684,-0.86,-2.30,-1.46,2.86
5.694,-1.01,-2.24,-1.79,3.04
5.704,-0.93,-2.12,-1.92,3.01
5.714,-0.78,-1.91,-1.87,2.78
5.724,-0.63,-1.66,-1.80,2.53
5.735,-0.43,-1.43,-1.77,2.31
5.744,-0.34,-1.19,-1.75,2.14
5.755,-0.25,-0.99,-1.69,1.97
5.765,-0.25,-0.79,-1.67,1.86
5.775,-0.42,-0.57,-1.82,1.95
5.785,-0.57,-0.32,-1.85,1.96
5.795,-0.55,-0.06,-1.82,1.90
5.805,-0.34,0.12,-1.54,1.58
5.815,0.08,0.24,-1.01,1.04
5.825,0.66,0.37,-0.51,0.91
5.835,1.12,0.48,-0.10,1.23
5.845,1.47,0.59,0.13,1.59
5.856,1.83,0.89,0.25,2.05
5.866,2.11,1.26,0.28,2.48
5.876,2.14,1.64,0.08,2.70
5.886,2.21,1.95,-0.26,2.96
5.896,2.32,2.21,-0.36,3.22
5.906,2.31,2.17,-0.17,3.17
5.916,2.08,1.79,-0.06,2.75
5.926,1.42,1.28,-0.23,1.92
5.936,0.62,0.77,-0.55,1.13
5.946,-0.10,0.39,-0.80,0.89
5.956,-0.88,0.10,-0.87,1.25
5.966,-1.65,-0.24,-0.82,1.86
5.976,-2.28,-0.56,-0.69,2.44
5.986,-2.81,-0.76,-0.55,2.96
5.997,-3.21,-0.76,-0.51,3.34
6.007,-3.54,-0.62,-0.60,3.64
6.017,-3.69,-0.45,-0.73,3.79
6.027,-3.77,-0.29,-0.88,3.88
6.037,-3.88,-0.07,-1.06,4.03
6.047,-4.00,0.07,-1.26,4.20
6.057,-4.04,0.05,-1.48,4.30
6.067,-4.17,0.05,-1.77,4.52
6.077,-4.36,-0.04,-1.90,4.75
6.087,-4.65,-0.35,-1.62,4.94
6.097,-4.76,-0.44,-1.62,5.05
6.107,-4.75,-0.02,-1.52,4.99
6.118,-4.84,0.09,-0.63,4.88
6.127,-4.25,0.09,0.12,4.26
6.138,-3.27,0.47,1.03,3.46
6.148,-1.96,0.81,2.08,2.97
6.158,-0.29,0.88,3.05,3.19
6.168,1.17,0.74,3.73,3.98
6.178,2.04,0.40,3.77,4.31
6.188,2.28,-0.08,3.20,3.92
6.198,1.94,-0.48,2.47,3.18
6.208,1.62,-0.97,1.82,2.62
6.218,1.38,-1.50,1.47,2.52
6.228,0.99,-1.91,1.58,2.66
6.239,0.92,-2.23,1.59,2.89
6.248,1.26,-2.37,1.45,3.05
6.259,1.72,-2.21,1.43,3.15
6.269,2.35,-1.94,1.51,3.40
6.279,3.18,-1.60,1.68,3.94
6.289,3.93,-1.22,2.06,4.60
6.299,4.57,-0.84,2.31,5.19
6.309,5.14,-0.52,2.45,5.72
6.319,5.44,-0.38,2.48,5.99
6.329,5.56,-0.37,2.37,6.05
6.339,5.47,-0.31,2.04,5.84
6.349,5.10,-0.20,1.54,5.34
6.359,4.59,-0.19,1.02,4.71
6.369,4.03,-0.32,0.48,4.07
6.380,3.39,-0.54,0.01,3.43
6.390,2.72,-0.62,-0.40,2.81
6.400,2.32,-0.60,-0.58,2.46
6.410,2.13,-0.45,-0.52,2.24
6.420,2.08,-0.29,-0.26,2.12
6.430,1.97,-0.09,-0.07,1.97
6.440,1.90,0.22,0.08,1.91
6.450,1.75,0.50,0.14,1.83
6.460,1.54,0.74,0.06,1.71
6.470,1.23,0.90,0.01,1.53
6.481,1.03,1.19,-0.00,1.58
6.490,0.98,1.38,0.03,1.70
6.501,0.70,1.40,0.13,1.57
6.511,0.30,1.30,0.11,1.34
6.521,0.11,1.18,0.14,1.20
6.531,-0.02,1.03,0.20,1.05
6.541,-0.42,1.03,0.18,1.13
6.551,-1.00,1.02,0.02,1.43
6.561,-1.81,0.96,-0.25,2.06
6.571,-2.62,0.88,-0.39,2.79
6.581,-3.47,0.97,-0.48,3.63
6.591,-4.10,0.95,-0.44,4.23
6.601,-4.68,0.84,-0.39,4.77
6.611,-5.24,0.92,-0.40,5.34
6.621,-6.00,0.96,-0.31,6.09
6.631,-6.69,0.84,-0.06,6.75
6.642,-6.91,0.75,0.21,6.95
6.652,-6.65,0.82,0.29,6.70
6.662,-6.06,1.08,0.04,6.16
6.672,-5.35,1.45,-0.28,5.55
6.682,-4.54,1.90,-0.33,4.93
6.692,-3.68,2.50,-0.27,4.46
6.702,-2.47,3.03,0.11,3.91
6.712,-1.11,3.23,0.90,3.53
6.722,0.12,3.11,1.83,3.61
6.732,1.00,2.82,2.64,3.99
6.742,1.44,2.58,3.10,4.28
6.752,1.56,2.10,2.89,3.90
6.763,1.19,1.57,2.14,2.91
6.773,0.51,1.14,1.23,1.76
6.783,-0.18,0.78,0.60,1.00
6.793,-0.34,0.43,0.65,0.85
6.803,0.02,0.10,1.20,1.20
6.813,0.66,-0.11,1.83,1.95
6.823,1.14,-0.35,2.14,2.45
6.833,1.23,-0.76,1.95,2.43
6.843,0.98,-1.20,1.34,2.05
6.853,0.54,-1.58,0.51,1.74
6.863,0.12,-1.86,-0.09,1.87
6.873,-0.18,-2.11,-0.18,2.12
6.884,-0.33,-2.37,-0.04,2.39
6.893,-0.11,-2.42,0.35,2.44
6.904,0.25,-2.21,0.89,2.40
6.914,0.58,-2.20,1.18,2.56
6.924,0.97,-2.23,1.22,2.72
6.934,1.15,-2.13,1.18,2.69
6.944,0.90,-2.26,1.19,2.71
6.954,1.28,-1.69,0.46,2.17
6.964,1.08,-1.34,-0.08,1.72
6.974,0.45,-1.43,-0.29,1.52
6.984,0.32,-1.33,-0.35,1.41
6.994,0.23,-1.17,0.14,1.20
7.004,0.17,-1.33,0.77,1.55
7.014,0.36,-1.52,1.52,2.18
7.025,0.96,-1.30,2.14,2.68
7.035,1.73,-1.14,2.36,3.14
7.045,2.42,-1.05,2.28,3.48
7.055,3.01,-0.75,2.06,3.73
7.065,3.37,-0.47,1.80,3.85
7.075,3.60,-0.38,1.43,3.89
7.085,3.70,-0.40,0.99,3.85
7.095,3.36,-0.57,0.47,3.44
7.105,2.56,-0.96,-0.11,2.74
7.115,1.72,-1.57,-0.81,2.46
7.125,1.11,-2.07,-1.49,2.78
7.135,0.68,-2.35,-2.05,3.19
7.146,0.48,-2.45,-2.44,3.49
7.156,0.67,-2.36,-2.63,3.59
7.166,0.98,-2.18,-2.39,3.38
7.176,1.24,-1.99,-2.03,3.10
7.186,1.56,-1.88,-1.85,3.07
7.196,1.83,-1.87,-1.68,3.11
7.206,2.16,-1.69,-1.33,3.05
7.216,2.78,-1.28,-0.90,3.19
7.226,3.74,-0.74,-0.23,3.82
7.236,4.56,-0.13,0.72,4.62
7.246,5.24,0.49,1.58,5.49
7.256,5.71,1.02,2.09,6.17
7.267,5.87,1.47,2.33,6.49
7.276,5.66,1.84,2.33,6.39
7.287,5.41,2.02,1.89,6.08
7.297,4.80,2.18,1.23,5.41
7.307,3.85,2.28,0.65,4.53
7.317,3.24,2.20,0.16,3.92
7.327,2.85,2.16,-0.37,3.60
7.337,2.45,2.27,-1.05,3.50
7.347,2.20,2.35,-1.51,3.55
7.357,1.94,2.33,-1.70,3.48
7.367,1.37,2.34,-1.69,3.19
7.377,0.64,2.20,-1.63,2.82
7.387,-0.04,2.11,-1.57,2.64
7.397,-0.52,2.15,-1.58,2.72
7.408,-0.97,2.40,-1.90,3.22
7.417,-1.55,2.76,-2.40,3.97
7.428,-2.20,2.95,-2.72,4.57
7.438,-3.07,3.04,-2.85,5.17
7.448,-3.96,3.19,-2.74,5.77
7.458,-4.32,3.26,-2.32,5.89
7.468,-4.54,3.17,-1.79,5.82
7.478,-4.84,2.89,-1.01,5.73
7.488,-5.08,2.43,-0.04,5.63
7.498,-5.00,1.90,0.73,5.39
7.508,-4.59,1.49,1.20,4.97
7.518,-3.96,1.30,1.53,4.44
7.529,-3.28,1.19,1.74,3.90
7.539,-2.87,1.03,1.66,3.47
7.549,-2.85,0.78,1.12,3.16
7.559,-3.17,0.41,0.27,3.21
7.569,-3.63,-0.04,-0.53,3.67
7.579,-3.99,-0.51,-1.26,4.22
7.589,-4.39,-0.99,-1.89,4.88
7.599,-4.81,-1.51,-2.26,5.52
7.609,-5.04,-1.93,-2.30,5.87
7.619,-4.98,-2.16,-1.98,5.78
7.629,-4.20,-2.41,-1.26,5.00
7.639,-2.94,-2.70,-0.28,4.00
7.649,-1.88,-2.88,0.71,3.51
7.659,-1.00,-3.16,1.42,3.61
7.670,-0.42,-3.65,1.54,3.98
7.680,-0.43,-4.03,1.21,4.23
7.690,-0.91,-4.17,0.54,4.30
7.700,-1.59,-4.11,-0.32,4.42
7.710,-2.30,-3.88,-1.15,4.65
7.720,-2.62,-3.62,-1.72,4.79
7.730,-2.39,-3.25,-1.70,4.38
7.740,-1.53,-2.88,-1.11,3.44
7.750,-0.13,-2.47,-0.16,2.48
7.760,1.51,-1.77,0.91,2.50
7.770,3.16,-1.03,1.90,3.83
7.780,4.73,-0.24,2.52,5.36
7.791,5.86,0.61,2.70,6.49
7.800,6.30,1.32,2.64,6.96
7.811,6.33,1.81,2.42,7.02
7.821,6.28,2.05,2.12,6.94
7.831,6.08,2.18,1.71,6.69
7.841,5.55,2.14,1.03,6.03
7.851,4.48,1.94,-0.01,4.88
7.861,3.20,1.61,-1.16,3.76
7.871,2.00,1.24,-2.02,3.10
7.881,1.29,0.84,-2.35,2.81
7.891,1.15,0.44,-2.07,2.41
7.901,1.39,0.11,-1.35,1.94
7.912,1.54,-0.17,-0.77,1.73
7.921,1.30,-0.29,-0.46,1.41
7.932,0.69,-0.35,-0.46,0.90
7.942,-0.19,-0.37,-0.74,0.85
7.952,-1.04,-0.41,-1.03,1.52
7.962,-1.53,-0.38,-1.18,1.97
7.972,-1.66,-0.22,-1.14,2.03
7.982,-1.73,0.02,-1.05,2.02
7.992,-1.86,0.24,-1.01,2.13
8.002,-2.02,0.44,-0.98,2.29
8.012,-2.03,0.58,-0.83,2.27
8.022,-1.87,0.73,-0.49,2.07
8.032,-1.66,0.94,0.03,1.91
8.043,-1.35,1.10,0.53,1.82
8.053,-1.21,1.24,0.79,1.90
8.062,-1.12,1.38,0.71,1.91
8.073,-1.17,1.55,0.40,1.98
8.083,-1.30,1.69,0.01,2.13
8.093,-1.53,1.76,-0.24,2.34
8.103,-1.56,1.80,-0.31,2.40
8.113,-1.38,1.85,-0.16,2.32
8.123,-1.28,1.90,0.02,2.30
8.133,-1.27,1.86,0.09,2.25
8.143,-1.30,1.89,0.16,2.30
8.153,-1.41,1.98,0.20,2.44
8.163,-1.47,2.02,0.20,2.50
8.173,-1.26,2.14,0.11,2.49
8.183,-0.76,2.50,0.00,2.61
8.194,-0.23,2.81,0.02,2.82
8.204,0.22,2.90,0.29,2.92
8.214,0.52,2.88,0.51,2.97
8.224,0.74,2.71,0.52,2.85
8.234,0.71,2.41,0.32,2.53
8.244,0.36,2.06,0.04,2.10
8.254,-0.18,1.61,-0.33,1.65
8.264,-0.66,1.12,-0.70,1.48
8.274,-0.98,0.60,-0.94,1.48
8.284,-1.31,0.07,-1.05,1.67
8.294,-1.70,-0.57,-1.05,2.08
8.304,-2.09,-1.32,-1.09,2.70
8.315,-2.44,-2.01,-1.17,3.37
8.325,-2.90,-2.67,-1.35,4.16
8.335,-3.38,-3.32,-1.65,5.02
8.345,-3.87,-3.91,-2.12,5.90
8.355,-4.39,-4.37,-2.64,6.73
8.365,-4.84,-4.65,-3.14,7.41
8.375,-5.07,-4.82,-3.51,7.83
8.385,-5.13,-4.64,-3.55,7.77
8.395,-5.23,-4.07,-3.13,7.33
8.405,-5.12,-3.42,-2.53,6.66
8.415,-4.90,-2.76,-1.92,5.94
8.425,-4.64,-2.19,-1.37,5.31
8.436,-3.82,-1.59,-0.81,4.21
8.446,-2.19,-0.87,0.07,2.36
8.456,0.16,-0.04,1.57,1.58
8.466,3.05,0.92,3.31,4.60
8.476,5.56,1.85,5.13,7.79
8.486,7.07,2.27,6.54,9.90
8.496,7.28,1.89,7.24,10.43
8.506,6.92,1.19,7.42,10.22
8.516,6.18,0.79,6.69,9.14
8.526,4.91,0.26,5.44,7.33
8.536,4.22,-0.34,4.19,5.96
8.546,4.08,-0.93,2.96,5.13
8.557,3.98,-1.35,1.78,4.56
8.566,3.70,-1.54,0.87,4.10
8.577,3.15,-1.64,0.26,3.56
8.587,3.21,-1.79,0.05,3.67
8.597,3.67,-1.81,0.20,4.09
8.607,4.01,-1.77,0.59,4.42
8.617,4.07,-1.73,0.90,4.51
8.627,3.72,-1.75,1.03,4.24
8.637,3.19,-1.89,1.01,3.84
8.647,2.68,-1.96,1.05,3.49
8.657,2.33,-1.81,1.06,3.13
8.667,1.96,-1.55,0.96,2.68
8.677,1.59,-1.20,0.88,2.18
8.687,1.38,-0.80,0.95,1.85
8.698,1.21,-0.45,1.12,1.71
8.708,1.07,-0.05,1.18,1.59
8.718,1.01,0.40,1.22,1.63
8.728,1.07,0.96,1.25,1.91
8.738,1.34,1.51,1.15,2.33
8.748,1.55,1.99,1.00,2.71
8.758,1.47,2.25,0.85,2.82
8.768,1.10,2.21,0.63,2.55
8.778,0.52,2.10,0.28,2.18
8.788,0.05,1.99,-0.09,1.99
8.798,-0.32,1.81,-0.26,1.86
8.808,-0.67,1.62,-0.17,1.76
8.818,-0.90,1.45,0.01,1.71
8.829,-1.09,1.40,0.08,1.77
8.839,-1.24,1.41,0.08,1.88
8.849,-1.57,1.50,-0.17,2.18
8.859,-2.15,1.51,-0.62,2.70
8.869,-2.74,1.46,-1.15,3.31
8.879,-3.09,1.50,-1.68,3.82
8.889,-3.30,1.57,-2.13,4.23
8.899,-3.46,1.57,-2.35,4.46
8.909,-3.60,1.61,-2.52,4.68
8.919,-3.66,1.71,-2.69,4.85
8.929,-3.62,1.77,-2.60,4.80
8.939,-3.37,1.86,-2.35,4.51
8.949,-2.97,2.38,-2.13,4.36
8.960,-2.74,2.60,-1.91,4.23
8.969,-2.85,2.05,-1.68,3.90
8.980,-2.64,2.46,-1.61,3.96
8.990,-1.71,3.88,-2.08,4.72
9.000,-1.67,3.75,-2.10,4.61
9.010,-1.87,3.15,-1.63,4.00
9.020,-1.71,2.59,-0.98,3.26
9.030,-1.23,2.36,0.16,2.67
9.040,-1.10,2.01,1.63,2.81
9.050,-0.95,1.33,2.36,2.87
9.060,-1.22,0.59,2.47,2.82
9.070,-1.63,0.07,2.10,2.66
9.081,-1.98,-0.57,1.52,2.56
9.091,-2.26,-1.20,1.10,2.79
9.101,-2.31,-1.49,0.90,2.89
9.111,-2.04,-1.42,0.89,2.64
9.121,-1.63,-1.14,1.01,2.23
9.131,-1.00,-1.11,1.12,1.87
9.141,-0.50,-1.06,1.37,1.80
9.151,-0.14,-1.11,1.52,1.88
9.161,-0.20,-1.19,1.78,2.15
9.171,-0.39,-1.20,2.41,2.72
9.181,-0.06,-1.31,3.24,3.49
9.191,0.43,-1.27,3.97,4.19
9.202,0.98,-1.09,4.30,4.54
9.211,1.37,-0.96,4.31,4.62
9.222,1.75,-0.83,4.09,4.53
9.232,1.95,-0.63,3.63,4.17
9.242,1.88,-0.64,2.94,3.55
9.252,1.72,-0.86,2.23,2.95
9.262,1.33,-1.00,1.59,2.30
9.272,0.89,-1.03,1.02,1.70
9.282,0.71,-1.24,0.67,1.58
9.292,0.63,-1.52,0.52,1.73
9.302,0.53,-1.87,0.58,2.03
9.312,0.62,-2.09,0.52,2.24
9.322,0.66,-2.05,0.26,2.17
9.332,0.67,-1.96,0.09,2.07
9.343,0.74,-1.80,-0.15,1.95
9.352,0.82,-1.52,-0.30,1.75
9.363,0.89,-1.36,-0.25,1.64
9.373,0.95,-1.38,-0.05,1.67
9.383,0.96,-1.41,0.23,1.72
9.393,0.99,-1.52,0.46,1.87
9.403,1.15,-1.73,0.62,2.17
9.413,1.30,-2.01,0.68,2.49
9.423,1.44,-2.34,0.71,2.84
9.433,1.73,-2.53,0.60,3.13
9.443,1.96,-2.57,0.43,3.26
9.453,2.43,-2.51,0.56,3.54
9.464,3.03,-2.35,0.75,3.91
9.474,3.50,-2.13,0.86,4.19
9.484,3.84,-1.87,0.92,4.37
9.494,4.16,-1.73,1.16,4.66
9.504,4.32,-1.51,1.82,4.93
9.514,4.56,-1.40,2.59,5.43
9.524,4.53,-1.38,3.28,5.76
9.534,4.01,-1.40,3.64,5.59
9.544,3.18,-1.46,3.41,4.88
9.554,2.45,-1.50,2.75,3.97
9.564,1.94,-1.36,1.92,3.05
9.574,1.74,-1.06,1.09,2.31
9.584,1.80,-0.83,0.58,2.07
9.595,2.03,-0.80,0.55,2.25
9.605,2.26,-0.79,0.79,2.52
9.615,2.56,-0.57,0.87,2.76
9.625,2.59,-0.10,1.07,2.81
9.635,2.41,0.36,1.00,2.63
9.645,1.92,0.55,0.68,2.12
9.655,1.27,0.57,0.29,1.42
9.665,0.63,0.71,-0.26,0.98
9.675,0.16,0.86,-1.00,1.33
9.685,-0.11,1.10,-1.51,1.87
9.695,-0.19,1.32,-1.61,2.09
9.705,-0.40,1.57,-1.26,2.05
9.715,-0.53,1.70,-1.01,2.05
9.726,-0.59,1.77,-1.02,2.13
9.735,-0.85,1.93,-1.18,2.42
9.746,-1.47,2.34,-1.72,3.26
9.756,-2.29,2.83,-2.48,4.40
9.766,-3.15,3.23,-3.28,5.58
9.776,-3.88,3.47,-3.92,6.52
9.786,-4.41,3.74,-4.05,7.06
9.796,-4.64,4.09,-3.87,7.29
9.806,-4.59,4.33,-3.56,7.25
9.816,-4.33,4.38,-3.19,6.94
9.826,-4.03,4.29,-2.80,6.52
9.836,-3.80,4.05,-2.59,6.13
9.847,-3.69,3.66,-2.54,5.79
9.856,-3.56,3.07,-2.61,5.38
9.867,-3.39,2.45,-2.60,4.93
9.877,-3.30,1.88,-2.50,4.54
9.887,-3.23,1.25,-2.34,4.18
9.897,-3.08,0.52,-1.95,3.68
9.907,-2.91,-0.25,-1.44,3.25
9.917,-2.74,-0.95,-0.91,3.04
9.927,-2.64,-1.57,-0.44,3.10
9.937,-2.52,-2.04,-0.20,3.25
9.947,-2.34,-2.29,-0.17,3.28
9.957,-2.06,-2.40,-0.45,3.19
9.967,-1.90,-2.40,-0.92,3.20
9.977,-1.84,-2.31,-1.51,3.32
9.988,-1.78,-2.19,-1.86,3.38
9.998,-1.56,-2.07,-1.73,3.12
10.008,-1.25,-1.78,-1.11,2.45
10.018,-0.63,-1.46,-0.33,1.63
10.028,0.12,-1.02,0.55,1.17
10.038,1.06,-0.49,1.53,1.93
10.048,2.19,0.01,2.64,3.43
10.058,3.21,0.39,3.61,4.84
10.068,3.84,0.62,4.06,5.62
10.078,4.13,0.67,3.93,5.74
10.088,4.27,0.67,3.48,5.55
10.098,4.28,0.69,2.71,5.11
10.109,4.16,0.73,2.06,4.70
10.119,4.07,0.59,1.79,4.48
10.129,3.92,0.42,1.69,4.29
10.139,3.52,0.38,1.53,3.86
10.149,3.05,0.18,1.39,3.36
10.159,2.57,-0.11,1.40,2.93
10.169,2.19,-0.40,1.37,2.62
10.179,1.78,-0.69,1.16,2.23
10.189,1.22,-0.85,0.53,1.58
10.199,0.63,-0.67,-0.37,1.00
10.209,0.40,-0.35,-1.30,1.41
10.219,0.33,-0.01,-2.12,2.15
10.229,0.38,0.35,-2.42,2.48
10.239,0.52,0.52,-2.22,2.34
10.250,0.67,0.49,-1.82,2.00
10.260,0.71,0.43,-1.48,1.70
10.270,0.61,0.41,-1.30,1.49
10.280,0.47,0.48,-1.27,1.44
10.290,0.29,0.49,-1.14,1.27
10.300,0.02,0.49,-1.05,1.16
10.310,-0.19,0.55,-1.01,1.17
10.320,-0.31,0.57,-0.95,1.15
10.330,-0.28,0.47,-0.98,1.13
10.340,-0.22,0.40,-0.97,1.07
10.350,-0.05,0.41,-0.94,1.03
10.360,0.18,0.46,-0.72,0.87
10.371,0.35,0.62,-0.46,0.84
10.381,0.47,0.78,-0.15,0.92
10.391,0.46,0.86,0.08,0.97
10.401,0.25,0.93,0.13,0.97
10.411,0.08,0.98,0.17,0.99
10.421,0.00,1.10,-0.01,1.10
10.431,-0.15,1.23,-0.39,1.29
10.441,-0.23,1.12,-0.91,1.46
10.451,-0.11,0.91,-1.18,1.50
10.461,-0.03,0.76,-1.06,1.30
10.471,0.09,0.62,-0.67,0.92
10.481,0.08,0.48,-0.26,0.55
10.492,0.17,0.31,-0.02,0.35
10.502,0.13,0.21,-0.05,0.25
10.512,-0.20,0.12,-0.13,0.27
10.522,-0.47,-0.10,-0.46,0.67
10.532,-0.72,-0.33,-0.70,1.06
10.542,-0.96,-0.49,-0.73,1.30
10.552,-1.24,-0.67,-0.79,1.62
10.562,-1.47,-0.91,-0.90,1.94
10.572,-1.61,-1.18,-0.96,2.21
10.582,-1.88,-1.36,-1.07,2.55
10.592,-1.99,-1.57,-1.29,2.84
10.602,-1.92,-1.67,-1.44,2.93
10.612,-1.79,-1.65,-1.53,2.88
10.622,-1.58,-1.65,-1.67,2.83
10.633,-1.38,-1.55,-1.72,2.69
10.643,-1.30,-1.14,-1.77,2.48
10.653,-1.21,-0.84,-1.58,2.16
10.663,-0.88,-0.82,-1.24,1.73
10.673,-0.60,-0.89,-0.90,1.40
10.683,-0.40,-0.87,-0.54,1.10
10.693,-0.16,-0.92,-0.38,1.01
10.703,0.02,-0.91,-0.24,0.94
10.713,0.10,-0.80,0.06,0.81
10.723,0.20,-0.71,0.55,0.92
10.733,0.30,-0.72,1.08,1.33
10.743,0.41,-0.81,1.61,1.85
10.753,0.60,-0.84,2.11,2.34
10.764,0.84,-0.94,2.45,2.75
10.774,1.03,-1.10,2.73,3.12
10.784,1.00,-1.25,2.78,3.21
10.794,0.59,-1.37,2.58,2.98
10.804,0.36,-1.27,2.50,2.83
10.814,0.54,-0.94,2.65,2.86
10.824,0.73,-0.57,2.95,3.09
10.834,0.96,-0.28,3.13,3.28
10.844,0.88,-0.10,3.09,3.21
10.854,0.64,0.00,2.79,2.86
10.866,0.54,0.08,2.46,2.52
10.875,0.48,0.10,2.11,2.17
10.884,0.53,0.12,1.80,1.88
10.895,0.40,0.15,1.57,1.63
10.905,0.15,0.27,1.33,1.37
10.915,-0.16,0.34,1.11,1.17
10.925,-0.46,0.43,0.94,1.13
10.935,-0.75,0.50,0.90,1.27
10.945,-0.89,0.51,0.99,1.43
10.955,-0.89,0.52,1.29,1.65
10.965,-0.86,0.58,1.56,1.88
10.975,-0.86,0.65,1.67,1.98
10.985,-0.88,0.73,1.53,1.91
10.995,-0.97,0.93,1.13,1.76
11.005,-0.99,1.26,0.70,1.75
11.016,-0.99,1.55,0.54,1.92
11.026,-1.14,1.59,0.61,2.05
11.036,-1.27,1.44,0.82,2.08
11.046,-1.31,1.26,1.22,2.19
11.056,-1.38,1.02,1.51,2.29
11.066,-1.50,0.72,1.79,2.44
11.076,-1.52,0.50,2.21,2.73
11.086,-1.44,0.42,2.65,3.05
11.096,-1.31,0.32,3.00,3.29
11.106,-1.37,0.21,2.92,3.23
11.116,-1.68,0.11,2.31,2.85
11.126,-2.14,0.02,1.35,2.53
11.136,-2.68,0.15,0.42,2.72
11.146,-3.07,0.43,-0.38,3.13
11.157,-3.29,0.85,-0.87,3.51
11.167,-3.40,1.30,-1.15,3.82
11.177,-3.40,1.71,-1.38,4.05
11.187,-3.19,2.19,-1.46,4.14
11.197,-2.76,2.76,-1.22,4.09
11.207,-2.15,3.32,-0.68,4.01
11.217,-1.72,3.71,-0.08,4.09
11.227,-1.66,3.87,0.48,4.24
11.237,-1.80,3.84,0.83,4.32
11.247,-1.93,3.82,0.87,4.37
11.257,-1.99,3.86,0.76,4.41
11.267,-1.97,3.82,0.62,4.34
11.278,-1.86,3.48,0.17,3.95
11.288,-2.03,2.83,-0.51,3.52
11.298,-2.35,2.14,-1.19,3.39
11.308,-2.43,1.62,-1.56,3.31
11.318,-2.21,1.32,-1.41,2.94
11.328,-1.85,1.16,-0.85,2.34
11.338,-1.42,0.97,-0.12,1.72
11.348,-0.95,0.72,0.62,1.34
11.358,-0.76,0.47,1.16,1.46
11.368,-0.84,0.13,1.26,1.52
11.378,-1.15,-0.18,0.80,1.42
11.388,-1.49,-0.41,0.28,1.57
11.399,-1.68,-0.53,0.02,1.76
11.409,-1.60,-0.67,0.21,1.75
11.419,-1.36,-0.92,0.57,1.74
11.429,-1.07,-1.20,0.86,1.82
11.439,-0.68,-1.45,0.90,1.84
11.449,-0.41,-1.66,0.73,1.86
11.459,-0.32,-1.80,0.39,1.87
11.469,-0.37,-1.86,-0.01,1.90
11.479,-0.34,-1.86,-0.18,1.90
11.489,-0.27,-1.88,-0.16,1.90
11.499,-0.17,-1.83,-0.05,1.84
11.509,-0.02,-1.63,-0.08,1.63
11.519,0.13,-1.39,-0.29,1.43
11.529,0.17,-1.15,-0.57,1.30
11.540,0.25,-0.93,-0.76,1.23
11.550,0.58,-0.75,-0.69,1.17
11.560,0.96,-0.65,-0.31,1.20
11.570,1.25,-0.76,0.14,1.47
11.580,1.28,-0.87,0.51,1.63
11.590,1.01,-0.91,0.61,1.49
11.600,0.62,-0.76,0.42,1.06
11.610,0.20,-0.52,0.07,0.56
11.620,-0.10,-0.41,-0.27,0.50
11.630,-0.34,-0.44,-0.53,0.77
11.640,-0.37,-0.51,-0.62,0.88
11.650,-0.02,-0.60,-0.35,0.69
11.661,0.56,-0.67,0.31,0.93
11.670,1.02,-0.74,0.93,1.56
11.681,1.40,-0.83,1.18,2.01
11.691,1.57,-1.03,1.32,2.29
11.701,1.59,-1.36,1.29,2.46
11.711,1.32,-1.72,0.92,2.36
11.721,0.77,-2.10,0.07,2.24
11.731,0.03,-2.47,-0.84,2.61
11.741,-0.53,-2.82,-1.54,3.26
11.751,-0.58,-3.04,-1.76,3.56
11.761,-0.07,-3.03,-1.72,3.48
11.771,0.61,-2.86,-1.77,3.42
11.782,1.25,-2.55,-1.77,3.35
11.791,1.94,-2.21,-1.71,3.40
11.802,2.81,-1.84,-1.41,3.64
11.812,3.62,-1.42,-0.87,3.98
11.822,4.31,-1.07,-0.37,4.46
11.832,4.76,-0.71,0.18,4.81
11.842,5.03,-0.41,0.86,5.12
11.852,5.25,-0.42,1.67,5.53
11.862,5.33,-0.51,2.42,5.87
11.872,5.19,-0.56,3.20,6.12
11.882,4.96,-0.43,3.71,6.21
11.892,4.76,-0.13,3.66,6.00
11.902,4.60,0.17,3.05,5.52
11.913,4.42,0.65,2.15,4.95
11.923,4.20,1.01,1.01,4.43
11.933,4.06,1.11,-0.10,4.21
11.943,4.05,1.10,-0.73,4.26
11.953,3.88,1.09,-0.87,4.12
11.963,3.73,0.98,-0.73,3.93
11.973,3.53,0.85,-0.40,3.65
11.983,2.98,0.71,-0.06,3.06
11.993,2.27,0.58,-0.00,2.34
12.003,1.60,0.47,-0.04,1.67
12.013,1.00,0.53,-0.04,1.14
12.023,0.61,0.69,-0.10,0.92
12.033,0.21,0.76,-0.32,0.85
12.044,-0.24,0.76,-0.64,1.02
12.053,-0.70,0.82,-1.03,1.49
12.064,-1.10,0.97,-1.34,1.99
12.074,-1.39,0.98,-1.37,2.19
12.084,-1.73,0.91,-1.09,2.24
12.094,-2.08,0.78,-0.67,2.32
12.104,-2.51,0.68,-0.26,2.61
12.114,-3.09,0.61,-0.16,3.16
12.124,-3.82,0.71,-0.21,3.90
12.134,-4.47,0.96,-0.16,4.58
12.144,-4.88,1.45,-0.04,5.09
12.154,-4.93,2.03,0.09,5.33
12.164,-4.66,2.43,0.30,5.26
12.174,-4.28,2.47,0.60,4.98
12.185,-4.00,2.25,0.97,4.70
12.195,-3.69,1.85,1.19,4.30
12.205,-3.36,1.48,1.18,3.86
12.215,-3.09,1.18,0.99,3.45
12.225,-3.03,0.95,0.67,3.25
12.235,-2.99,0.77,0.18,3.10
12.245,-2.99,0.70,-0.27,3.08
12.255,-3.01,0.56,-0.59,3.12
12.267,-2.97,0.27,-0.90,3.12
12.275,-2.87,0.01,-1.13,3.08
12.285,-2.62,-0.12,-1.24,2.90
12.295,-2.22,-0.17,-1.32,2.59
12.306,-1.81,-0.18,-1.49,2.35
12.316,-1.43,-0.14,-1.72,2.24
12.326,-0.97,-0.02,-1.89,2.12
12.336,-0.26,0.20,-1.99,2.02
12.346,0.55,0.50,-1.98,2.11
12.356,1.29,0.81,-1.90,2.43
12.366,1.93,1.27,-2.05,3.09
12.376,2.50,1.81,-2.38,3.90
12.386,3.17,2.32,-2.68,4.76
12.396,3.87,2.65,-2.61,5.37
12.406,4.43,2.64,-1.98,5.52
12.416,4.96,2.39,-0.95,5.59
12.427,5.37,2.14,0.17,5.79
12.436,5.66,1.86,1.14,6.07
12.447,5.70,1.39,1.82,6.15
12.457,5.26,0.81,2.09,5.72
12.467,4.42,0.18,1.83,4.79
12.477,3.41,-0.47,1.02,3.59
12.487,2.46,-1.07,0.12,2.69
12.497,1.71,-1.60,-0.67,2.44
12.507,1.15,-1.95,-1.28,2.60
12.517,0.83,-2.14,-1.74,2.87
12.527,0.64,-2.12,-2.09,3.05
12.537,0.60,-1.95,-2.30,3.08
12.548,0.61,-1.79,-2.33,3.00
12.557,0.70,-1.67,-2.35,2.97
12.568,0.72,-1.65,-2.35,2.96
12.578,0.71,-1.62,-2.28,2.89
12.588,0.72,-1.48,-2.11,2.67
12.598,0.85,-1.33,-1.85,2.43
12.608,0.99,-1.15,-1.52,2.15
12.618,1.13,-0.85,-1.14,1.82
12.628,1.27,-0.59,-0.65,1.55
12.638,1.50,-0.49,-0.06,1.58
12.648,1.73,-0.50,0.60,1.90
12.658,1.94,-0.36,1.13,2.27
12.668,2.06,-0.17,1.62,2.62
12.679,2.09,-0.13,1.96,2.87
12.689,1.96,-0.14,2.26,3.00
12.699,1.85,-0.12,2.49,3.10
12.709,2.00,-0.06,2.57,3.25
12.719,2.06,-0.14,2.76,3.44
12.729,2.25,-0.25,2.93,3.70
12.739,2.86,0.11,2.74,3.96
12.749,3.37,0.30,2.46,4.18
12.759,3.82,0.27,2.14,4.38
12.769,4.09,-0.04,2.01,4.56
12.779,4.02,-0.46,2.06,4.54
12.789,3.48,-1.01,2.07,4.17
12.799,2.48,-1.57,1.81,3.45
12.809,1.52,-2.07,1.24,2.85
12.820,0.55,-2.46,0.71,2.62
12.830,-0.24,-2.75,0.21,2.77
12.840,-0.65,-2.84,-0.12,2.91
12.850,-0.50,-2.75,-0.30,2.81
12.860,-0.10,-2.46,-0.40,2.50
12.870,0.25,-2.03,-0.43,2.09
12.880,0.35,-1.61,-0.55,1.73
12.892,0.45,-1.25,-0.85,1.58
12.900,0.39,-0.92,-1.11,1.49
12.910,0.16,-0.68,-1.31,1.48
12.920,-0.27,-0.59,-1.11,1.29
12.931,-0.83,-0.65,-0.60,1.22
12.940,-1.45,-0.85,0.05,1.68
12.951,-1.85,-0.93,0.53,2.14
12.961,-2.22,-0.79,0.75,2.48
12.971,-2.96,-0.52,0.61,3.07
12.981,-3.99,-0.28,-0.01,4.00
12.991,-4.99,0.04,-0.83,5.06
13.001,-5.47,0.38,-1.59,5.71
13.011,-5.29,0.97,-1.70,5.65
13.021,-4.54,1.73,-1.07,4.97
13.031,-3.40,2.49,0.16,4.22
13.041,-2.29,2.93,1.49,4.00
13.052,-1.59,2.81,2.62,4.16
13.061,-1.12,2.45,3.37,4.32
13.072,-1.17,2.23,3.57,4.37
13.082,-1.48,2.00,3.08,3.96
13.092,-1.99,1.86,1.95,3.35
13.102,-2.68,1.90,1.14,3.48
13.112,-2.92,1.89,1.01,3.62
13.122,-2.78,1.70,1.03,3.42
13.132,-2.52,1.50,1.30,3.21
13.142,-2.10,1.27,1.59,2.92
13.152,-1.77,1.03,1.62,2.61
13.162,-1.51,0.77,1.53,2.28
13.172,-1.41,0.58,1.25,1.97
13.182,-1.44,0.36,0.86,1.72
13.193,-1.47,0.27,0.56,1.59
13.202,-1.32,0.30,0.36,1.40
13.213,-1.01,0.42,0.42,1.17
13.223,-0.61,0.51,0.62,1.01
13.233,-0.18,0.52,0.91,1.06
13.243,0.17,0.37,1.14,1.21
13.253,0.23,0.03,1.34,1.36
13.263,0.19,-0.50,1.39,1.49
13.273,0.30,-0.88,1.42,1.69
13.283,0.42,-1.07,1.34,1.77
13.293,0.58,-1.22,1.21,1.82
13.303,0.85,-1.17,1.26,1.92
13.314,1.19,-1.14,1.22,2.05
13.323,1.34,-1.19,0.99,2.05
13.334,1.37,-1.17,0.53,1.88
13.344,1.36,-1.05,-0.01,1.72
13.354,1.40,-0.83,-0.40,1.68
13.364,1.62,-0.55,-0.30,1.73
13.374,1.93,-0.30,0.09,1.96
13.384,2.20,-0.13,0.59,2.28
13.394,2.33,-0.19,0.96,2.53
13.404,2.28,-0.29,1.28,2.63
13.414,2.02,-0.43,1.40,2.50
13.424,1.63,-0.45,1.35,2.16
13.434,1.21,-0.39,1.21,1.76
13.444,0.87,-0.33,1.01,1.38
13.455,0.59,-0.24,0.83,1.04
13.464,0.34,-0.09,0.47,0.59
13.475,-0.12,0.21,0.02,0.25
13.485,-0.55,0.54,-0.57,0.96
13.495,-1.02,0.89,-0.98,1.68
13.505,-1.65,1.33,-1.15,2.41
13.515,-2.24,1.67,-1.15,3.02
13.525,-2.74,2.02,-0.86,3.51
13.535,-3.10,2.34,-0.40,3.91
13.545,-3.39,2.54,0.09,4.24
13.555,-3.49,2.55,0.65,4.37
13.565,-3.39,2.51,1.11,4.37
13.575,-3.33,2.51,1.47,4.42
13.585,-3.42,2.56,1.52,4.53
13.596,-3.69,2.66,1.19,4.70
13.606,-3.98,2.67,0.58,4.82
13.616,-4.12,2.76,-0.02,4.96
13.626,-3.92,2.79,-0.15,4.82
13.636,-3.25,2.64,0.35,4.20
13.646,-2.29,2.30,1.11,3.43
13.656,-1.43,1.66,1.91,2.91
13.666,-0.71,0.93,2.59,2.85
13.676,-0.24,0.33,3.00,3.03
13.686,-0.15,-0.18,2.92,2.93
13.696,-0.45,-0.62,2.33,2.46
13.706,-1.11,-0.92,1.41,2.02
13.717,-1.75,-1.05,0.52,2.11
13.726,-2.28,-1.06,-0.05,2.52
13.737,-2.39,-0.95,-0.44,2.61
13.747,-2.16,-0.97,-0.39,2.40
13.757,-1.61,-1.01,-0.00,1.90
13.767,-0.95,-1.09,0.55,1.55
13.777,-0.38,-1.33,0.99,1.70
13.787,0.02,-1.47,1.23,1.92
13.797,0.30,-1.39,1.20,1.86
13.807,0.45,-1.27,0.92,1.63
13.817,0.47,-1.21,0.52,1.39
13.827,0.46,-1.13,0.10,1.22
13.837,0.47,-1.05,-0.28,1.18
13.847,0.33,-1.03,-0.62,1.25
13.858,0.22,-0.97,-0.49,1.10
13.868,0.28,-0.90,-0.15,0.96
13.878,0.54,-0.89,0.09,1.04
13.888,0.78,-0.68,0.16,1.05
13.898,0.98,-0.34,0.15,1.05
13.908,1.08,-0.25,0.03,1.11
13.918,1.13,-0.38,-0.09,1.19
13.928,1.16,-0.53,0.02,1.28
13.938,1.25,-0.69,0.21,1.45
13.948,1.54,-1.10,0.35,1.92
13.958,1.85,-1.43,0.63,2.42
13.968,2.09,-1.56,1.02,2.81
13.979,2.58,-1.58,1.37,3.33
13.988,3.22,-1.56,1.80,4.01
13.999,3.78,-1.56,2.20,4.64
14.009,3.83,-1.59,2.17,4.68
14.019,3.41,-1.76,1.45,4.10
14.029,2.92,-2.05,0.29,3.58
14.039,2.44,-2.27,-0.76,3.42
14.049,2.07,-2.25,-1.46,3.39
14.059,2.06,-2.20,-1.81,3.52
14.069,2.44,-2.24,-1.93,3.84
14.079,2.92,-2.15,-1.81,4.06
14.089,3.40,-1.96,-1.89,4.36
14.099,3.95,-1.80,-2.23,4.89
14.109,4.56,-1.60,-2.43,5.41
14.120,5.23,-1.36,-2.07,5.79
14.130,6.23,-1.16,-1.23,6.45
14.140,7.19,-0.92,-0.32,7.26
14.150,7.65,-0.56,0.67,7.70
14.160,7.65,-0.15,1.69,7.83
14.170,7.45,0.24,2.31,7.80
14.180,7.04,0.53,2.91,7.63
14.190,6.57,0.57,3.39,7.42
14.200,6.20,0.56,3.46,7.13
14.210,5.92,0.50,3.00,6.65
14.220,5.80,0.29,2.39,6.28
14.230,5.74,0.20,1.66,5.98
14.240,5.75,0.32,0.87,5.83
14.251,5.34,0.38,0.26,5.36
14.261,4.49,0.25,-0.43,4.52
14.271,3.61,-0.02,-0.91,3.72
14.281,2.69,-0.09,-1.07,2.89
14.291,1.73,0.01,-1.03,2.02
14.301,0.87,0.26,-1.09,1.42
14.311,0.19,0.50,-1.06,1.19
14.321,-0.61,0.72,-0.96,1.35
14.331,-1.36,0.93,-1.17,2.01
14.341,-1.93,1.32,-1.40,2.72
14.351,-2.13,1.79,-1.51,3.16
14.361,-2.13,2.23,-1.41,3.39
14.371,-1.99,2.67,-1.06,3.49
14.382,-2.01,2.93,-0.62,3.61
14.392,-2.31,3.05,-0.10,3.83
14.402,-2.67,3.07,0.19,4.07
14.412,-3.26,3.08,0.20,4.48
14.422,-3.96,3.13,0.15,5.05
14.432,-4.68,3.20,0.01,5.67
14.442,-5.31,3.37,-0.21,6.29
14.452,-5.62,3.57,-0.38,6.67
14.462,-5.74,3.87,-0.59,6.94
14.472,-5.82,3.94,-0.89,7.08
14.482,-5.73,3.59,-1.00,6.84
14.492,-5.24,3.03,-0.78,6.10
14.503,-4.47,2.29,-0.07,5.02
14.513,-3.78,1.44,0.80,4.13
14.523,-3.24,0.60,1.54,3.64
14.533,-2.85,-0.05,2.02,3.49
14.543,-2.64,-0.58,2.01,3.37
14.553,-2.71,-0.97,1.43,3.21
14.563,-2.97,-1.11,0.50,3.21
14.573,-3.41,-1.18,-0.48,3.64
14.583,-3.57,-1.24,-1.28,3.99
14.593,-3.70,-1.28,-1.70,4.27
14.603,-3.47,-1.42,-1.89,4.20
14.613,-3.09,-1.54,-1.79,3.89
14.624,-2.54,-1.64,-1.47,3.36
14.634,-1.85,-1.68,-1.04,2.71
14.644,-1.16,-1.58,-0.81,2.12
14.654,-0.64,-1.31,-1.03,1.78
14.664,-0.15,-0.95,-1.55,1.82
14.674,0.62,-0.39,-1.92,2.05
14.684,1.64,0.38,-1.92,2.55
14.694,3.01,0.99,-1.56,3.53
14.704,4.48,1.42,-0.93,4.79
14.714,5.89,1.60,-0.13,6.11
14.724,7.24,1.87,0.59,7.50
14.734,8.35,2.19,0.94,8.69
14.744,8.92,2.28,1.05,9.26
14.754,8.80,2.06,1.09,9.10
14.765,8.07,1.51,1.14,8.29
14.775,6.98,0.75,1.10,7.11
14.785,5.73,-0.03,0.88,5.80
14.795,4.54,-0.65,0.56,4.61
14.805,3.55,-1.10,0.18,3.72
14.815,2.75,-1.37,-0.18,3.07
14.825,2.29,-1.44,-0.65,2.78
14.835,2.01,-1.35,-1.07,2.64
14.845,1.73,-1.22,-1.48,2.58
14.855,1.60,-1.05,-1.90,2.70
14.865,1.31,-0.89,-2.02,2.57
14.875,1.09,-0.90,-1.86,2.34
14.886,0.99,-0.77,-1.40,1.88
14.895,0.96,-0.65,-0.84,1.43
14.906,0.76,-0.59,-0.41,1.05
14.916,0.50,-0.45,-0.12,0.69
14.926,0.20,-0.37,0.16,0.45
14.936,-0.02,-0.30,0.38,0.48
14.946,-0.16,-0.18,0.43,0.49
14.956,-0.36,-0.12,0.44,0.58
14.966,-0.53,-0.10,0.44,0.70
14.976,-0.73,-0.19,0.50,0.91
14.986,-0.91,-0.36,0.67,1.18
14.996,-0.90,-0.45,0.88,1.34
15.007,-0.90,-0.45,1.14,1.52
15.016,-0.97,-0.40,1.29,1.66
15.027,-1.12,-0.25,1.33,1.76
15.037,-1.26,-0.12,1.33,1.84
15.047,-1.22,0.03,1.23,1.73
15.057,-1.16,0.36,1.12,1.65
15.067,-1.15,0.64,0.94,1.62
15.077,-1.00,0.78,0.80,1.49
15.087,-0.88,0.96,0.77,1.51
15.097,-0.62,1.15,0.95,1.61
15.107,-0.33,1.16,1.19,1.69
15.117,-0.27,1.04,1.36,1.73
15.127,-0.41,0.81,1.43,1.69
15.137,-0.48,0.52,1.45,1.62
15.148,-0.67,0.39,1.48,1.67
15.158,-0.89,0.24,1.42,1.70
15.168,-1.13,0.05,1.20,1.65
15.178,-1.26,-0.09,0.95,1.58
15.188,-1.28,-0.10,0.74,1.48
15.198,-1.23,-0.05,0.49,1.33
15.208,-1.27,-0.03,0.19,1.28
15.218,-1.29,-0.01,-0.12,1.30
15.228,-1.25,-0.01,-0.29,1.29
15.238,-1.31,0.02,-0.42,1.38
15.248,-1.48,-0.01,-0.45,1.55
15.258,-1.88,-0.07,-0.35,1.91
15.269,-2.40,-0.17,-0.13,2.41
15.279,-2.85,-0.22,-0.06,2.86
15.289,-3.48,-0.26,-0.15,3.50
15.299,-4.26,-0.32,-0.27,4.28
15.309,-4.91,0.07,-0.45,4.93
15.319,-5.20,0.57,-0.62,5.27
15.329,-5.08,0.86,-0.79,5.21
15.339,-4.75,0.84,-0.65,4.86
15.349,-4.27,0.76,-0.09,4.34
15.359,-3.55,0.55,0.72,3.66
15.369,-2.90,0.14,1.28,3.17
15.379,-2.46,-0.34,1.69,3.01
15.390,-2.62,-0.69,2.10,3.43
15.399,-3.02,-0.76,2.37,3.91
15.410,-3.17,-0.74,2.56,4.14
15.420,-3.01,-0.78,2.59,4.05
15.430,-2.75,-0.78,2.42,3.74
15.440,-2.49,-0.64,2.10,3.32
15.450,-2.20,-0.48,1.61,2.77
15.460,-1.72,-0.43,0.98,2.02
15.470,-1.19,-0.37,0.28,1.28
15.480,-1.01,-0.17,-0.36,1.09
15.490,-0.84,-0.02,-1.02,1.32
15.500,-0.39,0.32,-1.19,1.29
15.510,0.50,0.70,-0.62,1.06
15.520,1.58,0.71,0.43,1.79
15.531,2.38,0.58,1.31,2.78
15.541,2.88,0.59,2.11,3.62
15.551,3.18,0.41,2.62,4.14
15.561,3.47,0.34,2.52,4.30
15.571,3.56,0.37,1.97,4.09
15.581,3.12,0.39,1.31,3.41
15.591,2.56,0.31,0.74,2.68
15.601,2.56,0.23,0.66,2.65
15.611,2.53,0.19,0.81,2.66
15.621,2.40,0.09,0.91,2.56
15.631,2.16,0.01,1.03,2.39
15.642,1.92,-0.03,1.12,2.23
15.652,1.72,-0.00,1.36,2.19
15.661,1.74,0.01,1.77,2.48
15.672,1.89,-0.09,2.07,2.81
15.682,1.99,-0.16,2.10,2.90
15.692,1.94,-0.25,1.84,2.68
15.702,1.77,-0.26,1.39,2.26
15.712,1.49,-0.14,0.91,1.75
15.722,1.22,-0.03,0.61,1.36
15.732,1.04,0.07,0.55,1.18
15.742,0.89,0.14,0.65,1.11
15.752,0.81,0.20,0.69,1.08
15.762,0.71,0.30,0.56,0.95
15.772,0.48,0.42,0.24,0.68
15.782,0.04,0.57,-0.26,0.63
15.793,-0.40,0.78,-0.75,1.15
15.803,-0.78,0.97,-1.05,1.63
15.813,-1.06,1.28,-1.10,2.00
15.823,-0.99,1.51,-0.89,2.01
15.833,-0.90,1.67,-0.62,2.00
15.843,-1.12,1.64,-0.48,2.04
15.853,-1.57,1.55,-0.45,2.26
15.863,-2.21,1.49,-0.61,2.74
15.873,-2.90,1.55,-0.81,3.39
15.883,-3.60,1.63,-0.99,4.07
15.893,-4.17,1.77,-1.11,4.66
15.903,-4.46,2.17,-0.90,5.04
15.914,-4.48,2.69,-0.50,5.24
15.923,-4.17,3.16,-0.21,5.23
15.934,-3.88,3.62,-0.18,5.31
15.944,-3.39,3.81,-0.03,5.10
15.954,-2.57,3.53,0.64,4.42
15.964,-1.77,2.85,1.46,3.66
15.974,-1.27,2.04,2.12,3.21
15.984,-1.42,1.32,2.35,3.05
15.994,-1.97,0.67,2.05,2.92
16.004,-2.74,0.10,1.64,3.19
16.014,-3.40,-0.36,1.27,3.65
16.024,-3.66,-0.42,0.92,3.80
16.034,-3.59,-0.32,0.79,3.69
16.044,-3.48,-0.45,0.81,3.60
16.055,-3.04,-0.42,1.07,3.25
16.065,-2.16,-0.13,1.16,2.46
16.075,-1.63,-0.60,1.00,2.00
16.085,-1.16,-0.93,0.86,1.72
16.095,-0.74,-1.05,0.61,1.42
16.105,-0.54,-1.28,0.27,1.41
16.115,-0.65,-1.41,-0.07,1.56
16.125,-0.70,-1.38,-0.24,1.57
16.135,-0.63,-1.25,-0.28,1.43
16.145,-0.44,-1.06,-0.11,1.15
16.155,-0.06,-0.78,0.26,0.83
16.165,0.33,-0.49,0.65,0.88
16.176,0.68,-0.17,0.95,1.18
16.186,1.21,-0.04,1.11,1.64
16.196,1.80,0.01,1.13,2.13
16.206,2.20,0.16,1.04,2.44
16.216,2.44,0.23,0.74,2.56
16.226,2.43,0.19,0.53,2.50
16.236,2.23,-0.10,0.44,2.28
16.246,1.96,-0.40,0.54,2.08
16.256,1.69,-0.77,0.85,2.04
16.266,1.37,-1.30,1.26,2.27
16.276,1.06,-1.77,1.49,2.55
16.286,1.07,-1.98,1.33,2.62
16.297,1.27,-1.86,1.05,2.49
16.306,1.73,-1.63,0.73,2.49
16.317,2.33,-1.30,0.45,2.70
16.327,2.80,-0.98,0.17,2.97
16.337,2.99,-0.87,-0.30,3.13
16.347,2.93,-1.00,-0.81,3.20
16.357,2.77,-1.28,-1.22,3.29
16.367,2.38,-1.63,-1.48,3.24
16.377,1.93,-2.02,-1.68,3.26
16.387,1.61,-2.47,-1.66,3.38
16.397,1.39,-2.74,-1.51,3.42
16.407,1.32,-2.82,-1.34,3.39
16.417,1.40,-2.88,-1.27,3.44
16.427,1.60,-2.76,-1.46,3.51
16.438,2.03,-2.49,-1.74,3.66
16.448,2.63,-2.04,-1.85,3.80
16.458,3.39,-1.46,-1.58,4.02
16.468,4.37,-0.86,-1.00,4.56
16.478,5.18,-0.37,-0.30,5.20
16.488,5.69,0.01,0.21,5.70
16.498,6.06,0.24,0.52,6.09
16.508,6.21,0.40,0.71,6.26
16.518,6.50,0.60,1.10,6.62
16.528,6.99,0.83,1.78,7.26
16.538,7.51,0.97,2.36,7.93
16.548,7.71,0.96,2.51,8.17
16.559,7.48,0.83,2.22,7.85
16.569,6.96,0.49,1.66,7.17
16.579,6.21,0.07,0.92,6.28
16.589,5.41,-0.32,0.10,5.42
16.599,4.67,-0.68,-0.60,4.75
16.609,3.91,-0.94,-1.02,4.15
16.619,3.35,-1.18,-1.20,3.75
16.629,2.81,-1.34,-1.12,3.31
16.639,2.42,-1.35,-0.74,2.87
16.649,2.06,-1.21,-0.39,2.42
16.659,1.65,-0.96,-0.12,1.91
16.669,0.84,-0.63,-0.14,1.06
16.680,0.00,-0.29,-0.44,0.52
16.690,-0.76,0.27,-0.69,1.06
16.700,-1.27,0.90,-0.88,1.79
16.710,-1.62,1.50,-0.91,2.39
16.720,-1.90,2.09,-0.73,2.92
16.730,-2.00,2.72,-0.35,3.39
16.740,-2.01,3.32,0.16,3.89
16.750,-2.07,3.75,0.50,4.31
16.760,-2.12,4.04,0.66,4.61
16.770,-2.19,4.39,0.80,4.98
16.781,-2.37,4.66,0.90,5.30
16.790,-2.73,4.85,0.92,5.65
16.800,-3.16,4.83,1.04,5.87
16.810,-3.53,4.59,1.18,5.91
16.820,-3.96,4.35,1.24,6.01
16.831,-4.38,4.07,1.17,6.10
16.843,-4.74,3.71,1.09,6.12
16.851,-5.03,3.37,1.04,6.14
16.861,-5.07,2.97,0.97,5.96
16.871,-4.69,2.48,1.10,5.42
16.881,-4.11,1.95,1.50,4.79
16.891,-3.53,1.44,1.84,4.23
16.901,-2.96,0.81,1.93,3.63
16.911,-2.77,0.25,1.78,3.30
16.921,-3.02,-0.16,1.38,3.33
16.931,-3.46,-0.58,0.67,3.57
16.942,-3.78,-0.80,-0.12,3.87
16.952,-3.84,-0.77,-0.76,3.99
16.962,-3.71,-0.78,-1.23,3.98
16.972,-3.56,-0.96,-1.37,3.93
16.982,-3.24,-1.16,-1.23,3.65
16.992,-2.78,-1.27,-1.15,3.26
17.002,-2.31,-1.38,-1.28,2.98
17.012,-1.92,-1.52,-1.51,2.87
17.022,-1.44,-1.51,-1.79,2.75
17.032,-0.69,-1.18,-1.95,2.38
17.042,0.46,-0.51,-2.07,2.18
17.052,1.93,0.14,-1.63,2.53
17.062,3.56,0.56,-0.64,3.66
17.072,5.05,0.80,0.53,5.14
17.083,6.60,1.04,1.59,6.87
17.093,8.16,1.28,2.25,8.56
17.103,9.13,1.30,2.51,9.55
17.113,9.49,1.25,2.24,9.83
17.123,9.21,1.00,1.64,9.40
17.133,8.26,0.43,1.10,8.35
17.143,7.08,-0.31,0.55,7.11
17.153,5.68,-0.88,-0.01,5.75
17.163,4.49,-1.51,-0.69,4.78
17.173,3.30,-1.87,-1.37,4.03
17.183,2.32,-2.05,-2.03,3.70
17.193,1.70,-2.05,-2.53,3.68
17.204,1.44,-1.77,-2.70,3.54
17.214,1.49,-1.49,-2.59,3.34
17.224,1.62,-1.28,-2.28,3.08
17.234,1.61,-1.10,-1.98,2.78
17.244,1.51,-0.88,-1.80,2.50
17.254,1.28,-0.65,-1.58,2.14
17.264,1.09,-0.55,-1.15,1.68
17.274,0.83,-0.47,-0.83,1.27
17.284,0.46,-0.31,-0.61,0.82
17.294,0.09,-0.23,-0.45,0.51
17.304,-0.39,-0.18,-0.42,0.60
17.314,-0.58,-0.15,-0.30,0.67
17.324,-0.64,-0.07,0.02,0.64
17.334,-0.75,-0.05,0.32,0.82
17.345,-0.83,-0.21,0.68,1.09
17.355,-0.92,-0.38,1.23,1.58
17.365,-1.01,-0.51,1.62,1.97
17.375,-1.17,-0.52,1.64,2.08
17.385,-1.17,-0.32,1.33,1.80
17.395,-0.94,0.02,1.01,1.38
17.405,-0.65,0.34,0.84,1.11
17.415,-0.47,0.70,0.61,1.04
17.425,-0.33,1.06,0.40,1.18
17.435,-0.23,1.31,0.46,1.40
17.446,-0.15,1.43,0.73,1.61
17.455,-0.13,1.45,1.09,1.82
17.466,-0.11,1.41,1.58,2.12
17.475,-0.27,1.47,2.18,2.64
17.486,-0.65,1.51,2.64,3.11
17.496,-1.11,1.47,2.85,3.40
17.506,-1.60,1.39,2.95,3.63
17.516,-2.07,1.24,2.94,3.80
17.526,-2.52,1.19,2.90,4.02
17.536,-2.72,1.12,2.84,4.09
17.546,-2.73,1.08,2.62,3.94
17.556,-2.64,1.06,2.24,3.62
17.566,-2.72,1.07,1.83,3.44
17.576,-2.73,1.10,1.38,3.25
17.586,-2.79,1.12,1.09,3.20
17.596,-2.74,1.10,1.28,3.22
17.607,-2.73,0.95,1.62,3.32
17.617,-2.98,0.80,1.77,3.56
17.627,-3.60,0.72,1.63,4.02
17.637,-4.47,0.77,1.30,4.72
17.647,-5.19,0.86,0.99,5.35
17.657,-5.40,1.00,0.73,5.54
17.667,-5.17,1.38,0.72,5.40
17.677,-4.60,1.62,0.92,4.96
17.687,-3.90,1.69,1.11,4.39
17.697,-3.36,1.52,1.10,3.85
17.708,-3.04,1.28,0.89,3.42
17.717,-2.88,0.95,0.62,3.10
17.728,-2.71,0.60,0.44,2.81
17.738,-2.26,0.23,0.33,2.29
17.748,-1.78,-0.02,0.38,1.82
17.758,-1.55,-0.26,0.53,1.66
17.768,-1.35,-0.44,0.69,1.58
17.778,-1.14,-0.45,0.88,1.51
17.788,-0.98,-0.53,1.04,1.53
17.798,-0.87,-0.74,1.17,1.63
17.808,-0.66,-1.21,1.11,1.78
17.818,-0.45,-1.66,1.07,2.03
17.828,-0.47,-1.88,1.00,2.18
17.838,-0.46,-2.10,0.59,2.22
17.849,-0.41,-2.06,0.16,2.10
17.858,-0.36,-1.82,-0.18,1.86
17.869,-0.06,-1.50,-0.22,1.52
17.879,0.27,-1.12,0.20,1.17
17.889,0.61,-0.82,0.70,1.24
17.899,1.49,-0.62,1.21,2.02
17.909,2.58,-0.27,1.67,3.09
17.919,3.63,0.15,1.80,4.05
17.929,4.49,0.57,1.68,4.83
17.939,5.00,0.91,1.42,5.28
17.949,5.39,1.07,1.11,5.61
17.959,5.63,1.06,0.87,5.79
17.969,5.90,1.01,0.61,6.02
17.979,6.05,0.79,0.42,6.12
17.990,5.99,0.39,0.27,6.01
18.000,5.86,-0.07,0.16,5.87
18.010,5.51,-0.40,0.06,5.53
18.020,5.05,-0.53,-0.14,5.08
18.030,4.75,-0.55,-0.37,4.80
18.040,4.55,-0.49,-0.35,4.58
18.050,4.21,-0.43,-0.19,4.23
18.060,3.83,-0.43,0.05,3.85
18.070,3.60,-0.52,0.35,3.65
18.080,3.38,-0.61,0.66,3.50
18.090,2.78,-0.63,0.79,2.96
18.100,1.81,-0.63,0.62,2.02
18.111,0.71,-0.67,0.27,1.02
18.120,-0.29,-0.68,-0.13,0.75
18.131,-1.19,-0.52,-0.59,1.42
18.141,-1.87,-0.26,-0.85,2.07
18.151,-2.44,0.10,-0.82,2.57
18.161,-2.91,0.49,-0.68,3.03
18.171,-3.23,0.85,-0.51,3.38
18.181,-3.42,1.18,-0.16,3.62
18.191,-3.65,1.62,0.41,4.01
18.201,-3.87,2.09,0.92,4.49
18.211,-3.97,2.31,1.29,4.77
18.221,-4.06,2.44,1.63,5.01
18.232,-4.09,2.48,1.88,5.14
18.242,-4.23,2.46,1.95,5.27
18.252,-4.40,2.45,2.02,5.43
18.262,-4.40,2.46,2.31,5.54
18.272,-4.09,2.49,2.71,5.50
18.282,-3.58,2.52,3.26,5.46
18.292,-2.93,2.54,3.97,5.55
18.302,-2.07,2.38,4.63,5.60
18.312,-1.29,1.97,4.95,5.48
18.322,-0.77,1.48,4.87,5.15
18.332,-0.47,0.96,4.21,4.35
18.342,-0.38,0.38,3.05,3.10
18.352,-0.44,-0.18,1.72,1.79
18.362,-0.68,-0.61,0.58,1.08
18.373,-1.03,-0.81,-0.27,1.34
18.383,-1.37,-0.87,-0.57,1.72
18.393,-1.58,-0.95,-0.43,1.89
18.403,-1.49,-1.03,0.01,1.81
18.413,-1.08,-1.11,0.89,1.79
18.423,-0.58,-1.21,1.74,2.19
18.433,0.20,-1.25,1.98,2.35
18.443,0.92,-1.23,1.79,2.36
18.453,1.27,-1.17,1.28,2.15
18.463,1.46,-1.12,0.57,1.92
18.473,1.54,-1.07,-0.17,1.88
18.483,1.47,-0.99,-0.73,1.91
18.494,1.30,-0.86,-1.02,1.86
18.503,1.27,-0.67,-0.87,1.68
18.514,1.22,-0.73,-0.54,1.52
18.524,1.14,-0.85,-0.16,1.43
18.534,1.03,-1.01,0.48,1.53
18.544,1.04,-1.19,1.23,2.00
18.554,1.18,-1.18,1.65,2.35
18.564,1.16,-1.14,1.68,2.34
18.574,1.11,-1.25,1.38,2.17
18.584,0.90,-1.29,1.14,1.95
18.594,0.97,-1.29,1.04,1.91
18.604,1.32,-1.13,1.00,2.00
18.615,1.63,-0.96,0.88,2.08
18.624,2.03,-0.99,0.53,2.32
18.635,2.35,-0.96,0.01,2.54
18.645,2.28,-0.95,-0.61,2.54
18.655,2.14,-1.08,-1.21,2.69
18.665,1.98,-1.18,-1.69,2.86
18.675,1.64,-1.17,-2.05,2.88
18.685,1.36,-1.11,-2.31,2.90
18.695,1.16,-1.14,-2.57,3.04
18.705,0.84,-1.21,-2.79,3.15
18.715,0.55,-1.43,-2.92,3.30
18.725,0.50,-1.68,-2.97,3.45
18.735,0.78,-1.81,-2.77,3.40
18.745,1.18,-1.68,-2.45,3.20
18.756,1.72,-1.31,-2.08,3.00
18.766,2.60,-0.63,-1.51,3.07
18.776,3.92,0.14,-0.57,3.96
18.786,5.41,0.84,0.70,5.52
18.796,6.95,1.26,2.10,7.37
18.806,8.14,1.50,3.34,8.93
18.816,8.80,1.63,3.88,9.75
18.826,8.66,1.27,3.61,9.47
18.836,7.68,0.81,2.95,8.26
18.846,6.37,0.32,2.17,6.74
18.856,5.03,-0.27,1.18,5.17
18.866,3.65,-0.85,0.28,3.76
18.877,2.37,-1.30,-0.59,2.77
18.886,1.43,-1.69,-1.32,2.58
18.897,0.82,-1.84,-1.97,2.82
18.907,0.51,-1.78,-2.56,3.16
18.917,0.32,-1.59,-2.86,3.29
18.927,0.28,-1.25,-2.96,3.22
18.937,0.48,-0.92,-2.96,3.14
18.947,0.49,-0.62,-2.97,3.07
18.957,0.19,-0.29,-2.77,2.79
18.967,-0.32,0.01,-2.52,2.54
18.977,-1.16,0.44,-2.36,2.67
18.987,-2.16,0.97,-2.12,3.18
18.998,-3.19,1.35,-1.71,3.86
19.007,-4.01,1.81,-1.10,4.53
19.018,-4.80,2.31,-0.54,5.35
19.028,-5.29,2.71,0.01,5.94
19.038,-5.34,3.11,0.49,6.20
19.048,-5.09,3.52,0.90,6.26
19.058,-4.64,3.98,1.21,6.23
19.068,-4.26,4.44,1.36,6.30
19.078,-3.88,4.71,1.28,6.23
19.088,-3.45,4.73,1.10,5.95
19.098,-3.07,4.59,1.06,5.62
19.108,-2.70,4.17,0.99,5.06
19.118,-2.58,3.58,0.93,4.51
19.128,-2.69,2.85,0.92,4.03
19.139,-2.79,2.12,0.83,3.60
19.149,-2.85,1.47,0.63,3.27
19.159,-2.82,0.82,0.47,2.98
19.169,-2.74,0.19,0.42,2.78
19.179,-2.73,-0.45,0.43,2.80
19.189,-2.48,-1.07,0.24,2.71
19.199,-2.06,-1.51,0.25,2.57
19.209,-1.50,-1.94,0.32,2.47
19.219,-0.89,-2.33,0.30,2.51
19.229,-0.45,-2.61,0.19,2.66
19.239,-0.22,-2.85,-0.18,2.86
19.249,-0.20,-2.93,-0.79,3.04
19.259,-0.50,-2.87,-1.35,3.21
19.269,-0.79,-2.82,-1.90,3.49
19.280,-0.80,-2.69,-2.10,3.50
19.290,-0.55,-2.56,-1.97,3.28
19.300,0.05,-2.46,-1.61,2.94
19.310,0.89,-2.26,-1.16,2.69
19.320,1.81,-1.96,-1.02,2.85
19.330,2.58,-1.52,-0.95,3.14
19.340,3.37,-0.96,-0.80,3.59
19.350,4.08,-0.38,-0.52,4.13
19.360,4.66,0.31,-0.24,4.68
19.370,5.21,0.82,0.02,5.27
19.381,5.55,1.17,0.14,5.67
19.390,5.77,1.48,-0.06,5.96
19.401,5.61,1.66,-0.42,5.87
19.410,5.21,1.54,-0.89,5.50
19.421,4.75,1.40,-1.30,5.12
19.431,4.22,1.41,-1.33,4.64
19.441,3.87,1.28,-1.12,4.23
19.451,3.63,0.96,-1.00,3.88
19.461,3.36,0.83,-0.86,3.57
19.471,3.08,0.77,-1.05,3.35
19.481,2.52,0.82,-1.67,3.13
19.491,1.71,0.98,-2.38,3.09
19.501,1.01,1.20,-2.89,3.29
19.511,0.75,1.25,-3.13,3.46
19.521,0.62,1.29,-2.89,3.22
19.531,0.58,1.27,-2.25,2.65
19.542,0.70,1.28,-1.57,2.14
19.552,0.77,1.13,-0.92,1.65
19.562,0.59,0.86,-0.34,1.10
19.572,0.30,0.62,-0.00,0.69
19.582,0.07,0.38,0.28,0.48
19.592,-0.08,0.22,0.52,0.57
19.602,-0.16,0.16,0.57,0.61
19.612,-0.22,0.20,0.46,0.55
19.622,-0.38,0.30,0.37,0.61
19.632,-0.44,0.32,0.25,0.60
19.642,-0.22,0.38,0.34,0.56
19.652,0.05,0.52,0.61,0.80
19.663,0.04,0.46,0.91,1.02
19.673,-0.06,0.33,1.18,1.22
19.683,0.05,0.23,1.59,1.61
19.693,0.25,0.26,2.09,2.12
19.703,0.23,0.51,2.45,2.51
19.713,0.03,0.66,2.45,2.54
19.723,-0.35,0.93,2.15,2.36
19.733,-0.79,1.22,1.62,2.18
19.743,-0.99,1.42,1.15,2.08
19.753,-1.07,1.61,1.00,2.18
19.764,-1.02,1.68,1.11,2.26
19.773,-0.95,1.46,1.21,2.12
19.784,-1.03,1.21,1.35,2.09
19.794,-1.23,0.91,1.45,2.11
19.804,-1.58,0.54,1.65,2.35
19.814,-2.09,0.15,1.82,2.77
19.824,-2.62,-0.14,1.80,3.19
19.834,-3.08,-0.30,1.79,3.58
19.844,-3.32,-0.43,1.80,3.81
19.854,-3.58,-0.50,1.79,4.04
19.864,-3.85,-0.66,1.58,4.21
19.874,-4.00,-0.77,1.35,4.29
19.884,-3.88,-0.86,1.13,4.13
19.894,-3.69,-0.85,0.83,3.88
19.904,-3.62,-0.79,0.44,3.73
19.915,-3.78,-0.71,0.09,3.85
19.925,-4.20,-0.56,-0.48,4.27
19.935,-4.77,-0.65,-0.76,4.87
19.945,-5.33,-0.83,-0.77,5.45
19.955,-5.99,-1.01,-0.60,6.11
19.965,-6.63,-1.05,-0.25,6.72
19.975,-6.88,-1.42,-0.02,7.02
19.985,-6.90,-1.65,0.24,7.10
19.995,-6.92,-1.52,0.74,7.13
20.005,-6.52,-0.98,1.75,6.82
20.015,-5.16,-0.59,3.53,6.28
20.025,-3.13,-0.53,5.45,6.30
20.035,-1.24,-0.70,6.68,6.83
20.046,-0.00,-0.99,7.22,7.29
20.056,0.76,-1.25,6.64,6.79
20.066,0.93,-1.10,5.15,5.35
20.076,0.43,-0.61,3.29,3.38
20.086,-0.15,-0.03,1.80,1.80
20.096,-0.45,0.39,0.75,0.96
20.106,-0.32,0.74,0.39,0.90
20.116,0.52,0.91,0.86,1.35
20.126,2.18,0.96,2.13,3.19
20.136,4.02,1.13,3.64,5.54
20.146,5.78,1.35,4.65,7.54
20.156,7.18,1.66,4.55,8.66
20.166,7.32,1.51,3.85,8.41
20.176,6.44,1.34,2.36,6.99
20.187,5.34,0.93,0.72,5.46
20.197,4.45,0.75,-0.10,4.52
20.207,4.31,0.59,-0.07,4.35
20.217,4.25,0.38,0.13,4.27
20.227,3.82,-0.39,0.03,3.84
20.237,3.06,-1.35,0.05,3.34
20.247,2.05,-1.81,0.01,2.74
20.257,1.44,-1.85,-0.11,2.35
20.267,1.15,-1.85,-0.25,2.20
20.277,0.94,-1.32,-0.37,1.67
20.287,0.47,-1.19,-0.17,1.29
20.298,0.19,-1.34,0.08,1.35
20.308,0.10,-1.46,0.07,1.47
20.318,0.30,-1.61,0.05,1.63
20.328,0.58,-1.28,0.11,1.41
20.338,0.85,-0.35,0.08,0.92
20.348,1.05,0.38,-0.05,1.11
20.358,1.15,0.72,-0.06,1.36
20.368,1.14,0.97,-0.03,1.49
20.378,0.88,0.85,0.10,1.23
20.388,0.32,0.49,0.52,0.78
20.398,-0.19,0.18,0.95,0.99
20.408,-0.62,0.09,1.56,1.69
20.419,-0.98,0.12,1.90,2.14
20.428,-1.28,0.17,1.76,2.18
20.439,-1.76,0.38,1.61,2.41
20.449,-2.35,0.67,1.34,2.79
20.459,-2.73,0.92,0.88,3.01
20.469,-2.97,1.32,0.38,3.27
20.479,-2.96,2.01,0.01,3.58
20.489,-2.94,2.54,-0.01,3.88
20.499,-3.18,2.74,0.29,4.21
20.509,-3.22,3.02,0.64,4.46
20.519,-2.89,3.37,0.68,4.49
20.529,-2.42,3.62,0.48,4.39
20.539,-2.08,3.84,0.25,4.38
20.549,-1.83,4.05,-0.19,4.45
20.559,-2.03,4.10,-0.80,4.65
20.570,-2.67,3.88,-1.40,4.92
20.580,-3.46,3.81,-1.88,5.47
20.590,-4.47,3.83,-2.38,6.35
20.600,-5.35,3.65,-2.47,6.94
20.610,-5.46,3.61,-1.90,6.81
20.620,-4.89,3.61,-0.92,6.15
20.630,-3.78,3.51,0.25,5.16
20.640,-2.24,3.29,1.62,4.30
20.650,-0.65,2.88,2.91,4.15
20.660,0.43,2.20,3.82,4.43
20.670,0.72,1.42,4.08,4.38
20.680,0.30,0.59,3.64,3.70
20.691,-0.56,-0.24,2.85,2.91
20.701,-1.69,-0.97,2.05,2.82
20.711,-2.55,-1.29,1.28,3.13
20.721,-2.88,-1.25,0.72,3.22
20.731,-2.68,-1.10,0.59,2.96
20.741,-1.81,-0.95,0.49,2.11
20.751,-0.82,-0.76,0.51,1.23
20.761,-0.03,-0.85,0.71,1.11
20.771,1.00,-0.86,0.81,1.55
20.781,2.01,-0.64,0.64,2.21
20.791,2.50,-0.62,0.44,2.62
20.801,2.46,-0.86,0.11,2.61
20.812,2.04,-1.12,-0.34,2.35
20.821,1.34,-1.40,-0.80,2.10
20.832,0.94,-1.37,-1.30,2.11
20.842,0.83,-1.11,-1.63,2.14
20.852,1.09,-1.05,-1.42,2.08
20.862,1.86,-1.16,-0.76,2.32
20.872,2.52,-1.22,-0.06,2.80
20.882,3.02,-1.45,0.85,3.45
20.892,3.23,-1.82,1.62,4.04
20.902,3.06,-2.25,1.73,4.17
20.912,2.51,-2.80,1.42,4.02
20.922,2.02,-3.21,1.10,3.95
20.933,1.64,-3.65,0.75,4.07
20.942,1.34,-4.28,0.37,4.51
20.953,1.21,-4.59,0.10,4.74
20.962,1.19,-4.64,-0.30,4.80
20.973,1.11,-4.57,-0.63,4.75
20.983,1.06,-4.39,-0.97,4.62
20.993,1.20,-4.17,-1.44,4.57
21.003,1.59,-4.02,-1.76,4.67
21.013,2.07,-3.99,-1.87,4.87
21.023,2.35,-4.06,-1.90,5.07
21.033,2.53,-4.47,-1.63,5.39
21.043,2.77,-5.03,-0.98,5.82
21.053,2.51,-5.51,-1.20,6.17
21.063,2.71,-5.83,-1.47,6.60
21.074,3.06,-5.97,-1.84,6.95
21.084,3.51,-6.20,-2.47,7.54
21.094,4.32,-6.36,-3.09,8.29
21.104,5.33,-6.26,-3.57,8.96
21.114,6.08,-6.08,-3.43,9.26
21.124,6.48,-5.82,-2.41,9.03
21.134,7.09,-5.31,-1.35,8.96
21.144,7.98,-4.50,-0.58,9.18
21.154,8.77,-3.60,0.15,9.48
21.164,9.53,-2.78,0.66,9.95
21.174,10.17,-2.13,0.95,10.43
21.184,10.55,-1.55,1.32,10.75
21.195,10.60,-0.95,2.12,10.85
21.204,10.33,-0.44,2.91,10.74
21.215,9.51,-0.18,3.30,10.07
21.225,8.66,0.01,3.47,9.32
21.235,7.91,0.25,3.07,8.49
21.245,7.10,0.53,2.14,7.43
21.255,6.56,0.87,1.02,6.69
21.265,6.07,1.32,-0.22,6.22
21.275,5.50,1.78,-1.18,5.90
21.285,4.95,1.97,-1.79,5.62
21.295,4.34,1.96,-2.04,5.18
21.305,3.81,1.91,-1.92,4.67
21.315,3.32,1.78,-1.21,3.96
21.325,2.74,1.64,-0.05,3.19
21.336,2.32,1.49,1.00,2.93
21.346,1.94,1.45,1.84,3.04
21.356,1.60,1.68,2.64,3.52
21.366,1.44,2.11,3.46,4.30
21.376,1.40,2.66,3.86,4.89
21.386,1.10,3.12,4.03,5.21
21.396,0.64,3.43,4.04,5.33
21.406,0.05,3.82,3.75,5.35
21.416,-0.69,4.24,3.23,5.38
21.426,-1.08,4.72,2.94,5.66
21.436,-1.56,5.19,3.03,6.21
21.446,-2.12,5.57,3.60,6.97
21.457,-2.44,5.84,4.47,7.75
21.467,-2.70,5.92,5.29,8.38
21.477,-3.10,5.86,6.04,8.97
21.487,-3.64,5.67,6.69,9.49
21.497,-4.28,5.47,7.34,10.10
21.507,-5.10,5.29,8.05,10.90
21.517,-5.94,5.01,8.56,11.56
21.527,-6.71,4.85,8.50,11.86
21.537,-7.38,4.80,8.02,11.91
21.547,-7.79,4.57,7.52,11.75
21.557,-7.95,4.43,6.97,11.46
21.567,-8.08,4.46,6.45,11.26
21.577,-8.00,4.51,5.98,10.96
21.587,-7.41,4.71,5.47,10.35
21.598,-6.94,4.81,5.04,9.83
21.608,-6.69,4.82,4.80,9.54
21.618,-6.23,5.00,4.47,9.16
21.628,-6.06,5.07,4.18,8.94
21.638,-6.02,4.96,3.84,8.69
21.648,-5.80,4.87,3.42,8.31
21.658,-5.34,5.26,2.92,8.04
21.668,-5.02,5.61,2.40,7.90
21.678,-4.60,5.82,1.91,7.66
21.688,-4.03,6.04,1.71,7.46
21.698,-3.62,6.30,1.56,7.43
21.708,-3.26,6.47,1.51,7.40
21.719,-2.98,6.46,1.58,7.28
21.729,-2.73,6.30,1.55,7.04
21.739,-2.70,6.05,1.67,6.83
21.749,-2.59,5.93,2.06,6.79
21.759,-1.91,5.95,2.45,6.72
21.769,-1.00,5.93,2.66,6.58
21.779,-0.12,5.86,2.46,6.36
21.789,0.70,5.73,1.85,6.07
21.799,1.74,5.52,1.26,5.92
21.809,2.80,5.21,0.71,5.96
21.819,3.57,4.54,0.26,5.78
21.829,3.82,3.62,0.16,5.27
21.839,3.70,2.63,0.12,4.54
21.850,3.27,1.72,-0.10,3.70
21.860,2.77,0.91,-0.28,2.93
21.870,2.35,0.22,-0.13,2.36
21.880,2.18,-0.34,0.07,2.21
21.890,2.10,-0.68,0.07,2.21
21.900,2.07,-0.86,0.07,2.24
21.910,2.23,-0.90,0.02,2.40
21.920,3.10,-0.63,-0.27,3.18
21.930,2.35,-1.00,-0.32,2.57
21.940,1.72,-1.72,-0.57,2.50
21.950,2.01,-1.80,-1.05,2.89
21.960,2.10,-1.67,-1.19,2.94
21.970,2.05,-1.75,-1.16,2.93
21.981,1.97,-1.90,-1.08,2.94
21.991,1.97,-1.95,-0.95,2.93
22.001,1.96,-2.05,-0.76,2.93
22.011,2.06,-2.07,-0.27,2.94
22.021,2.37,-2.15,1.30,3.45
22.031,2.78,-2.14,1.28,3.74
22.041,3.12,-2.24,1.08,3.99
22.051,2.99,-2.19,1.07,3.86
22.061,2.86,-2.21,1.06,3.76
22.071,2.82,-2.36,1.13,3.85
22.081,2.86,-2.39,1.00,3.86
22.091,2.80,-2.51,0.82,3.85
22.101,2.63,-2.71,0.86,3.87
22.111,2.48,-2.93,0.85,3.93
22.122,2.39,-3.20,0.83,4.07
22.132,2.42,-3.47,0.86,4.32
22.142,2.42,-3.74,0.50,4.48
22.152,2.23,-4.41,0.19,4.95
22.162,2.24,-4.94,0.19,5.42
22.172,2.21,-4.82,1.00,5.39
22.182,1.64,-4.73,0.78,5.07
22.192,1.15,-5.03,-0.16,5.17
22.202,0.41,-5.43,-0.90,5.52
22.212,-0.55,-5.90,-0.97,6.00
22.222,-1.54,-6.49,-0.66,6.70
22.232,-2.33,-7.05,-0.39,7.44
22.243,-2.85,-7.52,0.07,8.04
22.253,-3.03,-7.83,0.44,8.41
22.263,-2.92,-7.87,0.56,8.41
22.273,-2.63,-7.63,0.26,8.07
22.283,-2.18,-7.33,-0.26,7.66
22.293,-1.74,-6.98,-0.68,7.23
22.303,-1.21,-6.46,-0.90,6.63
22.313,-0.44,-5.81,-1.18,5.94
22.323,0.10,-5.11,-1.42,5.31
22.333,0.54,-4.58,-1.32,4.80
22.343,1.09,-3.89,-0.74,4.11
22.353,2.27,-3.20,1.08,4.06
22.364,3.40,-2.25,2.18,4.62
22.374,2.69,-1.21,1.71,3.41
22.384,4.24,0.22,3.91,5.77
22.394,5.42,1.71,5.77,8.10
22.404,6.47,2.70,6.26,9.40
22.414,7.23,3.76,6.36,10.34
22.424,7.33,4.54,6.08,10.55
22.434,7.09,4.54,5.39,10.00
22.444,6.55,3.98,4.62,8.95
22.454,5.91,3.31,3.83,7.78
22.464,5.13,2.90,3.17,6.69
22.474,4.29,2.66,2.55,5.66
22.485,3.81,2.55,1.94,4.98
22.495,3.61,2.61,1.40,4.67
22.505,3.52,2.79,0.97,4.59
22.515,3.51,2.95,0.56,4.62
22.525,3.64,3.04,0.12,4.74
22.535,3.59,3.07,-0.34,4.74
22.545,3.32,2.98,-0.84,4.53
22.555,2.82,2.75,-1.32,4.16
22.565,2.37,2.60,-1.65,3.88
22.575,2.06,2.42,-1.67,3.59
22.585,1.96,2.15,-1.37,3.21
22.595,1.87,1.79,-0.84,2.72
22.605,1.78,1.41,-0.42,2.31
22.615,1.65,0.95,-0.12,1.91
22.626,1.48,0.54,0.20,1.59
22.636,1.33,0.42,0.60,1.52
22.646,1.30,0.51,0.69,1.56
22.656,1.45,0.65,0.52,1.67
22.666,1.49,0.84,0.35,1.74
22.676,1.54,0.84,0.27,1.78
22.686,1.57,0.81,0.09,1.77
22.696,1.60,0.76,-0.15,1.78
22.706,1.48,0.49,-0.36,1.60
22.716,1.16,0.10,-0.55,1.29
22.726,0.77,-0.18,-0.79,1.12
22.736,0.52,-0.24,-0.82,1.00
22.746,0.67,-0.08,-0.70,0.97
22.756,1.10,0.31,-0.64,1.31
22.767,1.48,0.81,-0.73,1.84
22.777,1.38,1.25,-0.93,2.08
22.787,0.71,1.46,-1.26,2.06
22.797,-0.31,1.43,-1.56,2.14
22.807,-1.24,1.45,-1.79,2.61
22.817,-1.83,1.70,-1.90,3.14
22.827,-2.32,2.19,-1.83,3.68
22.837,-2.88,2.76,-1.45,4.24
22.847,-3.44,3.25,-0.70,4.78
22.857,-3.82,3.60,0.12,5.25
22.868,-3.97,3.81,0.57,5.54
22.877,-4.00,4.00,0.46,5.67
22.888,-3.77,4.28,0.03,5.70
22.898,-3.24,4.54,-0.17,5.58
22.908,-2.82,4.64,0.10,5.43
22.918,-2.67,4.47,0.42,5.22
22.928,-2.76,4.13,0.61,5.01
22.938,-2.93,3.79,0.57,4.82
22.948,-3.03,3.41,0.40,4.58
22.958,-2.95,2.90,0.71,4.20
22.968,-2.88,2.38,1.79,4.14
22.978,-2.28,1.87,2.83,4.08
22.988,-1.35,1.36,3.67,4.14
22.999,-0.80,0.77,4.26,4.40
23.009,-0.81,-0.08,4.58,4.65
23.018,-1.04,-0.99,4.25,4.49
23.029,-1.22,-1.72,3.55,4.13
23.039,-1.18,-1.95,2.77,3.59
23.049,-0.83,-1.76,1.73,2.61
23.059,-0.13,-1.28,0.56,1.40
23.069,0.30,-0.89,-0.23,0.97
23.079,0.59,-0.82,-0.28,1.05
23.089,1.10,-0.86,0.30,1.43
23.099,1.70,-0.98,1.40,2.41
23.109,2.33,-1.16,2.76,3.79
23.119,2.74,-1.36,3.30,4.50
23.129,3.04,-1.62,3.09,4.63
23.140,3.12,-1.81,2.70,4.50
23.150,2.95,-2.00,2.08,4.13
23.160,2.58,-2.32,1.18,3.67
23.170,2.32,-2.39,0.28,3.34
23.180,2.37,-2.22,-0.74,3.33
23.190,2.93,-2.35,-1.57,4.07
23.200,3.33,-2.59,-1.58,4.50
23.210,3.41,-2.91,-0.97,4.58
23.220,3.51,-3.23,-0.23,4.78
23.230,3.55,-3.36,0.50,4.91
23.240,3.53,-3.35,1.19,5.01
23.251,3.60,-3.26,1.64,5.13
23.260,3.57,-3.24,1.79,5.15
23.271,3.26,-3.32,1.79,4.99
23.280,2.84,-3.28,1.60,4.63
23.291,2.39,-3.19,1.22,4.17
23.301,1.83,-3.16,0.73,3.73
23.311,1.28,-3.37,0.12,3.60
23.321,0.72,-3.71,-0.38,3.79
23.331,0.15,-4.26,-0.58,4.30
23.341,-0.28,-4.88,-0.41,4.91
23.351,-0.55,-5.09,-0.23,5.13
23.361,-0.52,-5.07,-0.49,5.12
23.371,0.57,-4.82,-1.02,4.96
23.381,1.75,-4.30,-1.90,5.02
23.392,2.42,-4.08,-2.89,5.56
23.402,2.76,-4.03,-3.70,6.13
23.412,3.14,-4.01,-4.18,6.59
23.422,4.12,-3.82,-4.01,6.90
23.432,5.03,-3.34,-3.20,6.83
23.442,5.58,-2.89,-2.28,6.68
23.452,5.90,-2.63,-1.24,6.57
23.462,5.78,-2.22,-0.03,6.19
23.472,5.21,-1.69,0.60,5.51
23.482,4.81,-1.23,0.22,4.97
23.492,5.13,-0.70,-0.68,5.22
23.502,5.59,-0.05,-1.24,5.73
23.513,5.90,0.60,-1.19,6.05
23.522,6.35,0.93,-0.87,6.48
23.533,6.84,1.08,-0.11,6.92
23.543,6.58,1.32,1.03,6.79
23.553,5.76,1.34,1.59,6.13
23.563,4.79,0.81,1.70,5.14
23.573,3.71,0.40,1.42,3.99
23.583,2.93,0.34,1.09,3.14
23.593,1.92,0.45,1.07,2.24
23.603,0.77,0.75,1.14,1.56
23.613,0.17,1.31,-0.31,1.35
23.623,0.49,2.16,-1.70,2.79
23.633,0.97,3.11,-1.55,3.60
23.643,0.89,3.55,-0.97,3.79
23.654,0.02,3.44,-0.33,3.45
23.664,-1.06,3.53,0.39,3.70
23.674,-1.60,3.69,1.09,4.16
23.684,-1.60,3.84,1.64,4.48
23.694,-1.34,4.17,2.08,4.85
23.704,-1.15,4.50,2.36,5.22
23.714,-0.91,4.61,2.20,5.19
23.724,-0.95,4.54,1.83,4.99
23.734,-1.34,4.26,1.67,4.77
23.744,-2.19,3.94,1.46,4.73
23.754,-3.31,3.26,1.67,4.93
23.764,-4.01,3.50,2.06,5.71
23.775,-4.25,3.88,2.38,6.22
23.785,-4.19,3.84,2.91,6.38
23.795,-4.51,3.83,3.54,6.89
23.805,-5.15,3.97,4.29,7.79
23.815,-5.61,4.20,4.92,8.56
23.825,-5.79,4.43,5.06,8.88
23.835,-5.67,4.65,5.09,8.93
23.845,-5.69,4.90,5.05,9.05
23.855,-5.71,5.01,4.89,9.03
23.865,-5.88,4.83,5.00,9.10
23.875,-5.92,4.60,5.46,9.27
23.885,-5.66,4.34,6.01,9.33
23.895,-5.24,4.09,6.44,9.25
23.905,-4.80,3.92,6.42,8.92
23.916,-4.76,3.74,5.97,8.50
23.926,-4.85,3.63,5.35,8.08
23.936,-4.91,3.69,4.63,7.69
23.946,-4.87,3.79,3.87,7.28
23.956,-4.87,3.99,3.08,7.01
23.966,-4.95,4.32,2.45,7.02
23.976,-4.82,4.67,2.13,7.04
23.986,-4.38,5.03,2.07,6.98
23.996,-3.87,5.36,2.32,7.01
24.006,-3.43,5.60,2.75,7.12
24.016,-2.92,5.60,3.15,7.05
24.026,-2.79,5.34,3.27,6.86
24.037,-3.07,5.11,2.92,6.64
24.046,-3.44,5.20,2.33,6.65
24.057,-3.45,5.63,1.76,6.83
24.067,-2.90,6.03,1.17,6.79
24.077,-2.12,6.04,0.94,6.47
24.087,-0.94,6.09,0.86,6.22
24.097,0.41,6.23,1.00,6.32
24.107,1.24,5.58,1.23,5.84
24.117,2.05,4.74,1.40,5.35
24.127,2.76,4.10,1.90,5.29
24.137,3.20,3.55,2.00,5.18
24.147,3.09,2.59,1.39,4.26
24.158,2.62,1.48,0.31,3.02
24.167,2.27,0.66,-0.98,2.56
24.178,1.92,0.15,-2.17,2.90
24.188,1.75,-0.20,-3.11,3.58
24.198,2.02,-0.44,-3.53,4.10
24.208,2.58,-0.63,-3.27,4.21
24.218,2.88,-0.82,-2.67,4.01
24.228,2.81,-1.31,-1.95,3.66
24.238,2.53,-1.97,-1.17,3.42
24.248,2.10,-2.54,-0.50,3.33
24.258,1.75,-3.02,-0.16,3.50
24.268,1.63,-3.31,-0.31,3.70
24.278,1.46,-3.46,-0.74,3.83
24.288,1.12,-3.69,-1.11,4.02
24.299,0.82,-3.97,-1.46,4.31
24.309,0.63,-4.01,-2.47,4.75
24.319,0.79,-3.58,-3.60,5.14
24.329,0.98,-3.24,-4.06,5.29
24.339,1.72,-3.02,-3.53,4.95
24.349,4.35,-2.59,0.15,5.06
24.359,4.53,-2.13,0.72,5.06
24.369,4.40,-2.16,0.34,4.91
24.379,5.83,-1.77,2.65,6.64
24.389,6.17,-1.57,3.39,7.21
24.399,6.51,-1.38,3.06,7.32
24.409,6.10,-1.30,2.34,6.66
24.419,5.50,-1.59,1.22,5.85
24.429,5.03,-1.94,0.25,5.40
24.440,4.36,-2.21,-0.14,4.89
24.450,3.60,-2.61,-0.16,4.45
24.460,2.88,-3.20,-0.10,4.30
24.470,2.28,-3.79,0.02,4.42
24.480,1.77,-4.32,0.20,4.67
24.490,1.24,-4.84,0.48,5.02
24.500,0.65,-5.33,0.82,5.43
24.510,-0.08,-5.58,1.44,5.77
24.520,-0.89,-5.72,1.89,6.09
24.530,-1.39,-6.03,1.91,6.48
24.541,-1.62,-6.31,1.70,6.73
24.550,-1.56,-6.40,1.50,6.76
24.561,-1.15,-6.24,1.32,6.48
24.571,-0.61,-5.80,1.04,5.93
24.581,-0.36,-5.27,0.67,5.32
24.591,-0.34,-4.76,0.23,4.78
24.601,-0.27,-4.08,-0.06,4.09
24.611,-0.61,-3.32,-0.18,3.38
24.621,-0.85,-2.80,-0.50,2.97
24.631,-1.16,-2.39,-0.70,2.75
24.641,-1.35,-1.89,-0.77,2.45
24.651,-1.29,-1.23,-0.91,2.00
24.661,-0.97,-0.40,-0.88,1.37
24.671,-0.35,0.92,-0.66,1.18
24.682,0.62,2.50,-0.44,2.61
24.692,1.73,3.92,-0.23,4.29
24.702,2.62,4.90,0.00,5.56
24.712,3.12,5.43,0.50,6.28
24.722,3.50,5.30,1.25,6.48
24.732,4.16,4.56,1.94,6.47
24.742,4.75,3.61,2.68,6.54
24.752,4.90,2.74,3.63,6.69
24.762,4.82,2.18,4.06,6.67
24.772,4.89,1.93,3.57,6.35
24.782,4.83,1.98,2.69,5.87
24.792,4.49,1.97,1.68,5.18
24.802,4.18,1.91,0.45,4.62
24.812,3.75,1.85,-0.44,4.20
24.823,3.21,1.94,-0.90,3.86
24.833,3.06,2.16,-1.17,3.92
24.843,3.14,2.40,-1.27,4.15
24.853,3.22,2.45,-1.24,4.23
24.863,3.15,2.18,-0.91,3.94
24.873,3.04,1.76,-0.25,3.52
24.883,2.88,1.25,0.36,3.16
24.893,2.61,0.70,0.75,2.80
24.903,2.11,0.24,0.88,2.30
24.913,1.97,0.02,0.63,2.07
24.923,2.18,0.22,0.15,2.20
24.933,2.31,0.56,-0.11,2.38
24.944,2.34,0.74,-0.31,2.48
24.954,2.51,0.82,-0.47,2.69
24.964,2.75,0.91,-0.50,2.94
24.974,2.91,0.86,-0.53,3.08
24.984,2.86,0.55,-0.54,2.97
24.994,2.50,0.01,-0.47,2.54
25.004,1.89,-0.57,-0.36,2.01
25.014,1.25,-1.02,-0.42,1.67
25.024,0.74,-1.24,-0.65,1.58
25.034,0.41,-1.12,-0.90,1.49
25.044,0.32,-0.83,-1.02,1.35
25.054,0.31,-0.40,-0.95,1.07
25.065,0.31,-0.07,-0.84,0.89
25.075,0.08,0.05,-0.86,0.87
25.085,-0.46,0.00,-1.02,1.12
25.095,-0.95,-0.19,-1.20,1.54
25.105,-1.44,-0.28,-1.36,2.00
25.115,-1.82,-0.15,-1.59,2.42
25.125,-1.88,0.21,-1.59,2.47
25.135,-1.69,0.66,-1.04,2.09
25.145,-1.47,1.22,-0.21,1.92
25.155,-1.29,1.93,0.09,2.32
25.165,-1.28,2.46,-0.18,2.77
25.175,-1.57,2.75,-0.77,3.26
25.185,-2.02,3.00,-1.38,3.87
25.195,-2.43,3.22,-1.72,4.39
25.206,-2.52,3.37,-1.81,4.58
25.216,-2.39,3.24,-1.62,4.34
25.226,-2.25,3.13,-0.79,3.93
25.236,-1.76,3.02,0.31,3.50
25.246,-0.78,2.87,1.70,3.43
25.256,-0.09,2.65,3.27,4.21
25.266,0.24,2.28,4.51,5.06
25.276,0.36,1.89,5.00,5.36
25.286,-0.14,1.36,4.46,4.67
25.296,-1.09,0.74,3.32,3.57
25.306,-2.14,0.19,1.78,2.79
25.316,-3.09,-0.35,0.11,3.11
25.327,-3.47,-0.85,-0.82,3.66
25.337,-2.77,-0.93,-1.30,3.20
25.347,-1.74,-0.91,-1.31,2.35
25.357,-1.26,-0.71,-0.33,1.48
25.367,-0.84,-0.70,0.77,1.33
25.377,-0.41,-0.73,1.56,1.77
25.387,-0.25,-0.63,1.96,2.08
25.397,-0.09,-0.55,1.89,1.97
25.407,0.10,-0.63,1.38,1.52
25.417,0.07,-0.77,1.02,1.28
25.427,-0.30,-1.06,0.79,1.35
25.437,-0.34,-1.41,0.17,1.46
25.447,0.07,-1.48,-0.82,1.69
25.458,0.68,-1.41,-1.66,2.28
25.468,1.63,-1.45,-2.10,3.02
25.478,2.64,-1.52,-1.71,3.49
25.488,3.18,-1.76,-0.42,3.66
25.498,3.40,-2.22,0.91,4.16
25.508,3.13,-2.74,1.79,4.52
25.518,2.48,-3.04,2.03,4.41
25.528,1.88,-3.15,1.74,4.06
25.538,1.51,-3.37,1.02,3.83
25.548,1.40,-3.51,0.33,3.79
25.558,1.42,-3.23,-0.34,3.54
25.568,1.34,-2.87,-0.89,3.29
25.578,1.24,-2.62,-1.05,3.08
25.589,0.88,-2.39,-0.99,2.73
25.599,0.39,-2.44,-1.16,2.74
25.609,-0.30,-3.06,-1.32,3.35
25.619,-0.50,-3.60,-1.04,3.78
25.629,0.18,-3.80,-0.47,3.83
25.639,1.20,-3.70,-0.28,3.90
25.649,3.00,-3.07,-0.57,4.33
25.659,4.80,-1.96,-1.21,5.32
25.669,6.23,-1.43,-1.81,6.65
25.679,6.68,-1.67,-2.38,7.29
25.689,6.39,-2.46,-3.29,7.59
25.699,6.46,-2.93,-4.66,8.49
25.710,7.34,-2.88,-5.43,9.58
25.720,8.48,-2.37,-4.33,9.81
25.730,8.92,-1.57,-2.67,9.44
25.740,8.66,-1.30,-1.91,8.97
25.750,8.33,-1.39,-1.24,8.54
25.760,7.58,-1.89,-0.62,7.84
25.770,6.59,-2.49,0.19,7.05
25.780,5.57,-2.86,1.06,6.35
25.790,4.87,-2.91,1.15,5.78
25.800,4.54,-2.24,0.53,5.09
25.810,4.89,-1.04,-0.54,5.03
25.820,5.85,0.38,-1.72,6.11
25.830,6.34,1.43,-2.31,6.90
25.840,6.25,1.93,-2.11,6.87
25.851,6.06,2.03,-0.93,6.45
25.862,5.13,0.36,0.07,5.15
25.871,4.06,-0.62,2.14,4.64
25.881,3.07,-1.35,3.15,4.60
25.891,2.40,-1.12,3.10,4.07
25.901,1.25,0.06,2.47,2.77
25.911,-0.42,1.01,1.67,2.00
25.921,-1.72,1.66,1.55,2.85
25.931,-1.74,2.11,1.81,3.28
25.941,-0.76,2.32,1.62,2.93
25.951,0.72,2.05,1.61,2.71
25.961,1.03,2.39,1.97,3.27
25.972,0.37,2.52,1.73,3.08
25.982,-0.58,2.04,2.01,2.92
25.992,-1.69,1.67,3.13,3.93
26.002,-3.05,1.62,4.77,5.89
26.012,-4.69,1.83,6.15,7.95
26.022,-5.77,1.89,6.13,8.62
26.032,-6.05,2.04,5.38,8.36
26.042,-5.92,2.73,4.81,8.10
26.052,-5.53,3.63,4.48,7.98
26.062,-4.88,4.27,4.59,7.94
26.072,-4.63,4.56,4.58,7.95
26.082,-5.19,4.51,4.78,8.37
26.092,-6.20,4.18,5.63,9.36
26.102,-7.23,3.73,6.62,10.50
26.113,-7.84,3.41,7.35,11.28
26.123,-7.72,3.08,8.13,11.63
26.133,-7.25,2.85,8.83,11.77
26.143,-6.61,2.61,9.03,11.49
26.153,-6.05,2.29,9.36,11.37
26.163,-5.70,1.75,9.62,11.32
26.173,-5.86,0.98,9.41,11.13
26.183,-6.44,0.29,8.58,10.73
26.193,-7.10,-0.17,7.40,10.26
26.203,-7.51,-0.39,6.21,9.76
26.213,-7.55,-0.54,5.40,9.30
26.223,-7.45,-0.76,5.06,9.03
26.234,-7.37,-0.91,5.24,9.09
26.244,-7.28,-0.95,5.57,9.22
26.254,-7.00,-0.90,5.61,9.01
26.264,-6.49,-0.60,5.71,8.67
26.274,-5.75,0.08,5.87,8.22
26.284,-5.04,0.89,5.84,7.76
26.294,-4.40,1.99,5.44,7.27
26.304,-3.46,3.48,4.40,6.59
26.314,-2.66,4.73,3.10,6.25
26.324,-2.35,5.70,1.86,6.44
26.334,-2.01,6.55,0.85,6.91
26.344,-1.69,7.05,-0.02,7.25
26.354,-1.48,7.06,-0.72,7.25
26.364,-1.10,6.99,-0.82,7.12
26.375,-0.47,7.08,-0.23,7.10
26.385,0.58,7.13,0.61,7.18
26.395,1.77,6.97,1.72,7.40
26.405,2.90,6.50,2.50,7.55
26.415,4.02,5.84,2.49,7.52
26.425,4.64,5.10,1.76,7.12
26.435,4.53,4.16,0.38,6.16
26.445,3.83,3.12,-1.25,5.10
26.455,2.79,2.12,-2.59,4.35
26.465,1.87,1.19,-3.31,3.98
26.475,1.27,0.35,-3.46,3.70
26.485,1.02,-0.23,-3.31,3.48
26.496,1.57,-0.33,-3.00,3.40
26.506,1.59,-1.16,-1.94,2.76
26.516,1.74,-1.74,-0.63,2.55
26.526,1.69,-2.25,0.62,2.88
26.536,1.39,-3.03,1.38,3.60
26.546,0.79,-3.79,1.03,4.00
26.556,0.30,-4.25,-0.37,4.28
26.566,0.83,-4.10,-2.03,4.65
26.576,1.92,-2.92,-3.11,4.68
26.586,2.84,-2.10,-2.95,4.60
26.596,3.77,-2.09,-2.24,4.86
26.606,4.36,-2.48,-0.63,5.06
26.617,4.34,-2.73,1.27,5.29
26.627,4.54,-2.98,2.79,6.10
26.637,4.72,-3.21,3.66,6.77
26.647,4.54,-3.30,3.65,6.70
26.657,4.34,-3.15,3.05,6.17
26.667,4.27,-2.59,2.20,5.46
26.677,4.63,-2.13,1.53,5.33
26.687,5.07,-1.98,1.40,5.62
26.697,5.02,-1.97,1.40,5.57
26.707,4.50,-2.12,1.25,5.13
26.717,3.65,-2.45,0.85,4.47
26.727,3.00,-2.69,0.40,4.05
26.737,2.47,-2.72,0.00,3.67
26.747,2.33,-2.67,-0.31,3.56
26.758,2.53,-2.77,-0.36,3.77
26.768,2.59,-2.78,-0.09,3.80
26.778,2.37,-2.81,0.30,3.68
26.788,2.08,-3.10,0.76,3.81
26.798,1.78,-3.40,1.23,4.03
26.808,1.54,-3.63,1.74,4.31
26.818,1.39,-3.83,2.22,4.64
26.828,1.20,-3.91,2.32,4.70
26.838,1.11,-3.99,1.84,4.53
26.848,0.77,-4.17,1.49,4.50
26.859,0.18,-4.25,1.33,4.46
26.868,-0.17,-4.04,0.91,4.15
26.879,-0.18,-3.47,0.33,3.49
26.889,0.27,-2.57,0.16,2.59
26.899,0.72,-2.36,-0.02,2.46
26.909,0.84,-2.11,-0.39,2.31
26.919,0.93,-1.44,-0.28,1.74
26.929,1.25,-0.95,0.13,1.57
26.939,1.29,-0.35,0.92,1.63
26.949,1.18,0.43,1.77,2.17
26.959,1.11,1.38,2.16,2.79
26.969,1.24,2.46,1.87,3.34
26.979,1.62,3.61,1.35,4.18
26.989,2.63,4.78,0.99,5.55
27.000,3.91,5.54,0.93,6.85
27.009,4.83,5.58,1.09,7.46
27.020,5.18,5.09,1.20,7.36
27.030,4.78,4.30,1.23,6.54
27.040,3.86,3.44,1.14,5.30
27.050,2.97,2.73,0.77,4.10
27.060,2.22,2.03,0.39,3.03
27.070,1.66,1.50,0.06,2.24
27.080,1.12,1.16,-0.54,1.70
27.090,0.94,0.93,-1.42,1.93
27.100,0.84,0.95,-2.28,2.61
27.110,0.85,1.14,-2.98,3.30
27.120,0.86,1.27,-3.44,3.77
27.130,0.91,1.03,-3.67,3.92
27.141,0.82,0.60,-3.34,3.49
27.151,0.77,0.37,-2.65,2.79
27.161,0.80,0.19,-2.36,2.50
27.171,0.89,0.02,-2.12,2.30
27.181,0.82,-0.19,-1.79,1.97
27.191,0.76,-0.39,-1.50,1.73
27.201,0.90,-0.33,-1.53,1.80
27.211,1.04,-0.05,-1.78,2.06
27.221,1.45,0.28,-1.97,2.46
27.231,2.01,0.64,-2.12,2.99
27.241,2.63,1.11,-2.35,3.70
27.251,3.34,1.51,-2.50,4.44
27.262,3.89,1.72,-2.71,5.04
27.272,4.12,1.58,-2.84,5.25
27.282,3.90,1.12,-2.76,4.91
27.292,3.15,0.38,-2.61,4.10
27.302,2.42,-0.27,-2.60,3.56
27.312,1.74,-0.58,-2.63,3.21
27.322,1.32,-0.56,-2.71,3.07
27.332,1.06,-0.30,-2.89,3.09
27.342,0.95,0.12,-3.12,3.27
27.352,1.06,0.65,-3.32,3.55
27.362,1.16,1.19,-3.33,3.72
27.372,1.01,1.64,-2.99,3.55
27.383,0.84,1.98,-2.32,3.16
27.393,0.81,2.36,-1.54,2.93
27.403,0.71,2.83,-0.85,3.04
27.413,0.27,3.34,-0.35,3.37
27.423,-0.59,3.75,-0.18,3.80
27.433,-1.60,4.12,-0.24,4.42
27.443,-2.66,4.68,-0.43,5.40
27.453,-3.22,5.11,-0.89,6.10
27.463,-3.34,5.42,-1.35,6.51
27.473,-3.47,5.68,-1.15,6.76
27.483,-3.46,5.67,-0.37,6.66
27.493,-3.07,5.25,1.23,6.21
27.504,-2.37,4.68,3.21,6.15
27.513,-1.47,4.18,4.46,6.29
27.524,-0.64,3.65,5.29,6.46
27.534,0.02,2.98,5.78,6.51
27.544,0.17,2.27,5.53,5.98
27.554,-0.38,1.59,4.77,5.04
27.564,-1.35,0.83,3.89,4.20
27.574,-2.23,0.09,2.98,3.73
27.584,-2.94,-0.55,2.13,3.68
27.594,-3.00,-1.06,1.67,3.59
27.604,-2.43,-1.23,1.43,3.08
27.614,-1.93,-1.58,1.35,2.83
27.624,-1.63,-1.99,2.15,3.35
27.634,-1.63,-2.12,3.05,4.05
27.645,-1.66,-2.52,3.54,4.65
27.654,-1.44,-2.90,3.72,4.93
27.665,-1.02,-2.95,3.45,4.65
27.675,-0.32,-2.85,2.73,3.96
27.685,0.48,-2.55,1.85,3.19
27.695,0.81,-2.20,1.13,2.60
27.705,0.78,-2.17,0.60,2.38
27.715,0.68,-2.45,0.21,2.55
27.725,0.62,-2.85,0.08,2.92
27.735,0.84,-3.08,0.20,3.20
27.745,0.89,-3.16,0.49,3.32
27.755,1.10,-3.26,0.74,3.52
27.765,1.61,-3.37,1.04,3.88
27.776,2.08,-3.36,1.60,4.27
27.786,2.12,-3.16,1.79,4.21
27.796,2.13,-2.95,1.61,3.98
27.806,2.56,-2.91,1.37,4.11
27.816,3.11,-2.87,1.02,4.35
27.826,3.53,-2.84,0.73,4.59
27.836,3.83,-2.85,0.55,4.80
27.846,4.02,-2.69,0.53,4.87
27.856,3.90,-2.49,0.89,4.71
27.866,3.30,-2.42,1.47,4.35
27.876,2.59,-2.56,1.79,4.06
27.887,2.03,-2.61,1.97,3.85
27.897,1.60,-2.75,2.26,3.91
27.907,0.94,-3.04,2.61,4.11
27.917,0.64,-3.39,1.73,3.86
27.927,0.66,-3.22,0.88,3.41
27.937,0.91,-2.91,0.59,3.11
27.947,1.59,-2.84,0.23,3.26
27.957,2.46,-2.78,-0.75,3.79
27.967,3.30,-2.79,-1.74,4.66
27.977,3.97,-2.51,-1.94,5.08
27.987,3.98,-2.24,-2.32,5.13
27.997,3.94,-2.51,-2.77,5.43
28.007,4.03,-2.76,-3.03,5.75
28.017,4.21,-2.56,-3.55,6.07
28.028,4.29,-2.34,-3.99,6.31
28.038,3.72,-2.21,-3.83,5.78
28.048,3.14,-1.82,-3.66,5.15
28.058,3.57,-1.28,-3.65,5.26
28.068,4.51,-0.75,-3.49,5.76
28.078,4.91,-0.27,-2.86,5.69
28.088,4.97,-0.00,-2.12,5.40
28.098,5.22,0.02,-1.19,5.36
28.108,5.14,0.15,-0.13,5.15
28.118,4.73,0.49,0.47,4.78
28.128,4.54,0.81,0.56,4.65
28.138,4.10,0.89,0.68,4.25
28.148,3.07,0.73,0.83,3.26
28.159,2.19,0.46,0.71,2.35
28.169,1.88,0.27,0.53,1.97
28.179,1.99,0.15,0.42,2.04
28.189,2.56,0.20,0.14,2.57
28.199,3.19,0.30,0.13,3.21
28.209,3.07,0.64,0.15,3.14
28.219,2.51,0.93,-0.01,2.68
28.229,1.89,1.05,0.17,2.17
28.239,1.21,1.37,0.40,1.87
28.249,0.59,1.73,0.51,1.89
28.259,-0.15,2.10,0.74,2.23
28.269,-0.96,2.35,1.00,2.73
28.279,-1.99,2.34,1.21,3.30
28.290,-3.22,2.19,1.25,4.09
28.300,-4.58,2.17,1.49,5.29
28.310,-5.59,2.37,1.91,6.37
28.320,-6.28,2.63,2.51,7.25
28.330,-6.86,2.91,3.63,8.29
28.340,-7.52,3.28,4.76,9.49
28.350,-8.15,3.78,5.52,10.54
28.360,-8.31,4.52,5.93,11.16
28.370,-7.66,5.25,6.00,11.06
28.380,-6.74,5.81,5.92,10.69
28.390,-5.98,6.27,5.79,10.42
28.400,-5.75,6.63,5.81,10.52
28.411,-5.53,6.60,5.72,10.34
28.420,-5.51,6.14,5.84,10.10
28.431,-5.74,5.32,6.47,10.16
28.441,-5.79,4.61,7.20,10.32
28.451,-5.17,4.02,7.68,10.10
28.461,-4.47,3.58,8.05,9.88
28.471,-3.89,2.98,8.26,9.60
28.481,-3.59,2.30,7.99,9.06
28.491,-3.53,1.76,7.60,8.56
28.501,-3.50,1.46,6.90,7.87
28.511,-3.53,1.27,5.94,7.02
28.521,-3.70,1.37,5.21,6.54
28.531,-3.68,1.54,4.59,6.08
28.541,-3.86,1.81,3.96,5.82
28.551,-4.03,2.17,3.42,5.71
28.562,-4.04,2.50,3.12,5.68
28.572,-3.81,2.84,3.24,5.75
28.582,-3.36,3.27,3.49,5.85
28.592,-2.60,3.79,3.38,5.71
28.602,-1.61,4.49,2.63,5.45
28.612,-0.88,5.81,1.72,6.12
28.622,-0.31,7.58,0.69,7.62
28.632,0.80,9.14,-0.55,9.19
28.642,2.38,9.92,-1.10,10.26
28.652,3.65,9.90,-1.01,10.60
28.662,3.92,9.31,-0.62,10.12
28.673,3.70,8.17,0.40,8.97
28.683,3.62,6.80,1.42,7.83
28.693,3.77,5.50,1.93,6.94
28.703,3.88,4.55,1.92,6.28
28.713,4.05,3.68,1.54,5.69
28.723,4.16,2.71,1.07,5.08
28.733,4.42,1.74,0.73,4.81
28.743,5.00,1.32,0.38,5.18
28.753,5.40,1.12,-0.41,5.53
28.763,5.15,0.49,-1.16,5.30
28.773,4.44,-0.31,-1.62,4.74
28.783,3.37,-0.89,-2.01,4.02
28.793,2.44,-1.44,-2.29,3.65
28.803,1.96,-2.10,-2.18,3.61
28.814,1.63,-2.71,-1.86,3.67
28.824,1.21,-3.24,-1.41,3.74
28.834,0.92,-3.72,-1.00,3.97
28.844,1.00,-4.07,-0.87,4.28
28.854,1.12,-4.22,-0.91,4.46
28.864,0.94,-4.45,-0.93,4.65
28.874,0.72,-4.92,-0.97,5.07
28.884,0.59,-5.33,-1.02,5.46
28.894,0.49,-5.53,-1.26,5.69
28.904,0.49,-5.39,-1.72,5.68
28.914,0.83,-5.09,-2.45,5.71
28.924,1.37,-4.95,-3.20,6.05
28.935,2.03,-4.94,-3.58,6.43
28.945,3.26,-4.88,-3.17,6.68
28.955,4.49,-4.52,-1.37,6.52
28.965,5.14,-3.85,0.99,6.49
28.975,5.68,-3.39,2.64,7.12
28.985,6.35,-3.10,3.30,7.79
28.995,6.61,-2.77,3.22,7.86
29.005,6.47,-2.77,2.82,7.58
29.015,5.82,-2.84,2.46,6.93
29.025,4.78,-2.82,2.12,5.94
29.036,3.82,-2.70,1.57,4.93
29.045,3.15,-2.60,0.91,4.18
29.056,2.88,-2.73,0.37,3.99
29.066,2.87,-3.11,0.06,4.23
29.076,2.67,-3.55,0.24,4.45
29.086,2.08,-3.82,0.79,4.42
29.096,1.32,-4.13,1.25,4.51
29.106,0.84,-4.42,1.56,4.76
29.116,0.90,-4.54,1.73,4.94
29.126,1.32,-4.44,1.70,4.93
29.136,1.49,-4.14,1.75,4.73
29.146,1.27,-3.62,1.57,4.15
29.156,1.08,-3.10,1.03,3.44
29.166,0.78,-2.82,0.58,2.99
29.177,0.09,-2.68,0.51,2.73
29.186,-0.37,-2.37,0.40,2.43
29.197,-0.41,-1.75,0.30,1.83
29.207,-0.28,-0.87,0.33,0.97
29.217,-0.10,0.20,0.27,0.35
29.227,0.25,1.54,0.15,1.56
29.237,0.61,2.89,0.24,2.96
29.247,1.27,4.11,0.18,4.30
29.257,2.09,4.93,0.18,5.36
29.267,2.66,4.98,0.79,5.70
29.277,2.65,4.87,1.68,5.80
29.287,2.40,4.49,2.12,5.51
29.297,2.28,3.96,2.28,5.11
29.307,2.23,3.51,2.21,4.71
29.318,2.09,3.08,1.90,4.17
29.327,1.91,2.64,1.29,3.50
29.338,1.61,2.27,0.61,2.85
29.348,1.24,1.94,-0.03,2.30
29.358,0.88,1.64,-0.73,2.00
29.368,0.44,1.46,-1.35,2.04
29.378,-0.10,1.24,-1.85,2.23
29.388,-0.50,1.02,-2.26,2.53
29.398,-0.62,0.86,-2.42,2.64
29.408,-0.58,0.76,-2.24,2.43
29.418,-0.40,0.62,-1.85,1.99
29.428,-0.14,0.39,-1.30,1.36
29.439,0.12,0.26,-0.87,0.91
29.448,0.46,0.22,-0.71,0.88
29.459,0.67,0.07,-0.67,0.96
29.469,0.97,-0.02,-0.67,1.18
29.479,1.40,0.15,-0.83,1.64
29.489,1.51,0.20,-0.79,1.72
29.499,1.51,0.30,-0.60,1.66
29.509,1.80,0.41,-0.70,1.97
29.519,2.16,0.41,-0.94,2.39
29.529,2.17,0.29,-1.02,2.41
29.539,1.88,0.11,-1.02,2.14
29.549,1.67,0.05,-1.17,2.04
29.559,1.72,0.09,-1.46,2.26
29.569,1.79,0.04,-1.63,2.42
29.580,1.75,0.07,-1.70,2.44
29.590,1.73,0.25,-1.73,2.46
29.600,2.08,0.35,-1.74,2.73
29.610,2.58,0.42,-1.57,3.05
29.620,2.83,0.55,-1.18,3.12
29.630,3.13,0.67,-0.96,3.34
29.640,3.22,0.58,-0.93,3.40
29.650,2.71,0.52,-1.09,2.97
29.660,1.78,0.43,-1.42,2.32
29.670,0.74,0.33,-1.65,1.84
29.680,-0.33,0.27,-1.71,1.76
29.690,-1.64,0.29,-1.77,2.43
29.701,-2.88,0.52,-1.88,3.48
29.711,-3.52,1.40,-1.77,4.18
29.721,-4.04,2.04,-1.94,4.93
29.731,-4.15,2.63,-2.52,5.52
29.741,-3.95,3.55,-2.69,5.96
29.751,-3.84,4.53,-2.32,6.37
29.761,-3.47,5.28,-1.32,6.45
29.771,-2.98,5.72,0.26,6.45
29.781,-2.69,5.82,1.73,6.63
29.791,-2.76,5.50,2.79,6.75
29.801,-2.90,4.97,3.37,6.67
29.811,-2.43,4.60,3.21,6.11
29.821,-1.83,4.44,2.53,5.43
29.831,-1.57,4.13,1.64,4.71
29.842,-1.22,3.71,0.54,3.94
29.852,-0.52,3.31,-0.36,3.37
29.862,-0.01,2.58,-0.56,2.64
29.872,0.03,1.71,0.55,1.80
29.882,-0.37,0.86,2.16,2.35
29.892,-0.87,-0.16,3.37,3.49
29.902,-1.41,-1.13,4.18,4.55
29.912,-1.82,-1.89,4.55,5.25
29.922,-1.95,-2.39,4.26,5.26
29.932,-1.98,-2.72,3.39,4.78
29.942,-1.81,-3.24,1.95,4.20
29.952,-1.98,-3.94,1.21,4.57
29.962,-2.36,-4.31,0.32,4.93
29.972,-2.67,-4.54,-0.95,5.35
29.983,-3.14,-4.74,-1.44,5.86
29.993,-2.98,-4.82,-1.31,5.81
30.005,-1.80,-4.73,-0.71,5.11
30.013,-1.21,-5.00,-0.85,5.22
30.023,-0.78,-5.31,-1.75,5.64
30.033,-0.10,-4.71,-2.38,5.27
30.043,0.80,-3.97,-2.65,4.84
30.053,2.15,-3.33,-2.97,4.95
30.063,4.24,-2.82,-2.81,5.82
30.073,6.87,-2.00,-1.29,7.27
30.083,9.04,-0.71,1.08,9.14
30.093,10.92,0.06,3.34,11.42
30.104,12.17,0.38,5.14,13.22
30.114,12.32,0.85,5.85,13.67
30.124,11.35,1.07,5.50,12.66
30.134,9.62,0.71,4.43,10.62
30.144,7.30,0.11,3.13,7.95
30.154,4.64,-0.43,2.03,5.09
30.164,2.17,-0.97,1.31,2.71
30.174,0.13,-1.40,1.20,1.84
30.184,-1.76,-1.74,1.28,2.79
30.194,-3.06,-2.16,1.30,3.96
30.204,-3.57,-2.61,1.29,4.60
30.214,-3.48,-2.97,0.97,4.68
30.225,-3.27,-3.21,0.56,4.62
30.235,-2.86,-3.34,0.12,4.40
30.245,-2.43,-3.56,-0.67,4.37
30.255,-2.43,-3.88,-1.75,4.90
30.265,-2.18,-4.22,-2.76,5.50
30.275,-1.33,-4.66,-3.67,6.08
30.285,0.15,-4.76,-4.22,6.36
30.295,2.21,-4.42,-4.28,6.53
30.305,4.10,-3.65,-4.08,6.84
30.315,5.38,-2.88,-3.80,7.19
30.325,6.62,-2.19,-3.42,7.77
30.335,8.20,-1.26,-2.89,8.79
30.345,10.79,0.02,-0.86,10.83
30.356,10.92,0.85,-0.82,10.98
30.366,10.94,0.91,-1.83,11.13
30.376,9.49,0.92,-1.39,9.63
30.386,7.49,0.12,-1.14,7.58
30.396,6.03,-0.67,0.03,6.07
30.406,4.83,-0.74,1.42,5.09
30.416,4.07,-0.66,2.01,4.59
30.426,3.81,-0.58,2.04,4.36
30.436,3.87,-0.23,1.78,4.27
30.446,3.52,-0.13,1.15,3.70
30.456,3.07,-0.14,0.20,3.08
30.466,2.83,-0.17,-0.56,2.89
30.476,2.68,-0.29,-0.87,2.83
30.487,2.35,-0.44,-0.27,2.41
30.497,1.65,-0.34,0.42,1.73
30.507,1.01,-0.34,1.24,1.64
30.517,0.38,-0.08,2.07,2.11
30.527,0.12,0.48,2.16,2.22
30.537,0.58,0.92,1.60,1.93
30.547,0.81,1.30,1.34,2.03
30.557,0.36,1.78,1.29,2.23
30.567,-0.56,1.81,1.09,2.18
30.577,-1.74,1.31,0.94,2.37
30.587,-2.70,1.38,0.75,3.12
30.597,-3.26,1.88,0.97,3.89
30.608,-3.59,2.04,1.55,4.41
30.618,-3.14,2.29,2.70,4.73
30.628,-3.11,2.76,4.11,5.85
30.638,-3.65,3.30,5.05,7.05
30.648,-4.22,3.86,5.17,7.71
30.658,-5.24,4.20,4.73,8.21
30.668,-6.28,4.28,3.83,8.51
30.678,-7.48,4.53,2.99,9.24
30.688,-8.34,5.17,2.56,10.14
30.698,-8.42,5.72,2.73,10.54
30.708,-7.82,5.93,3.95,10.58
30.718,-6.74,6.18,6.30,11.11
30.728,-6.03,6.30,7.23,11.33
30.739,-5.77,5.87,8.35,11.73
30.749,-5.49,5.34,9.72,12.38
30.759,-5.24,4.90,10.43,12.66
30.769,-5.07,4.56,10.48,12.50
30.779,-4.90,4.33,9.54,11.57
30.789,-4.59,4.22,7.77,9.96
30.799,-4.68,4.31,6.09,8.80
30.809,-4.97,4.48,4.42,8.02
30.819,-5.44,4.72,2.84,7.75
30.829,-5.76,5.04,1.57,7.82
30.839,-5.64,5.48,0.78,7.91
30.849,-5.14,6.15,0.61,8.04
30.859,-4.27,6.65,0.91,7.96
30.870,-3.19,6.82,1.30,7.64
30.879,-2.15,6.83,1.68,7.35
30.890,-1.48,6.62,2.04,7.08
30.900,-0.93,6.09,2.08,6.50
30.910,-0.79,5.53,1.77,5.86
30.920,-0.72,5.12,0.96,5.26
30.930,-0.81,4.89,-0.43,4.98
30.940,-1.13,4.70,-1.88,5.18
30.950,-1.22,4.36,-2.35,5.10
30.960,-0.32,4.69,-1.17,4.84
30.970,1.58,5.30,0.46,5.54
30.980,3.29,5.41,1.43,6.49
30.991,4.29,4.66,1.53,6.51
31.000,4.17,3.64,0.94,5.62
31.011,3.47,2.72,-0.07,4.41
31.021,2.70,2.13,-1.24,3.65
31.031,2.15,1.67,-2.08,3.43
31.041,2.22,1.22,-2.15,3.32
31.051,2.43,0.86,-1.21,2.85
31.061,3.15,0.63,-0.05,3.21
31.071,4.08,0.48,0.65,4.16
31.081,4.12,0.15,0.96,4.24
31.091,3.59,-0.56,1.06,3.79
31.101,3.06,-1.53,0.95,3.55
31.111,2.60,-2.44,1.07,3.72
31.121,1.87,-3.28,1.28,3.99
31.132,0.85,-4.19,1.34,4.48
31.142,0.02,-5.15,0.99,5.24
31.152,-0.87,-5.89,0.49,5.97
31.162,-1.52,-6.28,0.03,6.46
31.172,-1.54,-7.01,-0.46,7.19
31.182,-0.94,-7.42,-0.41,7.49
31.192,0.93,-5.52,-0.69,5.64
31.202,2.35,-4.75,-0.54,5.32
31.212,2.60,-4.82,-1.42,5.65
31.222,2.36,-4.36,-3.01,5.80
31.232,2.47,-4.12,-3.93,6.21
31.242,3.16,-3.63,-3.88,6.18
31.253,4.61,-3.44,-2.63,6.32
31.263,6.21,-3.27,-0.94,7.08
31.273,7.85,-2.49,1.20,8.32
31.283,9.51,-1.60,2.94,10.08
31.293,10.33,-0.97,3.83,11.06
31.303,9.92,-0.83,4.15,10.79
31.313,8.60,-0.87,3.78,9.43
31.323,7.33,-1.11,3.28,8.10
31.333,7.45,-1.28,4.23,8.66
31.343,4.84,-1.94,1.60,5.45
31.353,3.36,-2.07,0.13,3.95
31.363,3.40,-2.23,1.14,4.22
31.374,2.57,-2.84,0.90,3.94
31.383,1.94,-3.41,0.90,4.02
31.394,1.40,-3.73,0.92,4.09
31.404,1.23,-3.87,0.73,4.12
31.414,1.10,-3.87,0.60,4.07
31.424,0.83,-3.91,0.29,4.01
31.434,0.65,-3.82,-0.42,3.90
31.444,-0.14,-3.76,-0.84,3.86
31.454,-0.83,-3.81,-0.90,4.00
31.464,-0.93,-3.64,-0.79,3.84
31.474,-1.09,-3.53,-0.30,3.71
31.484,-1.37,-3.59,-0.00,3.84
31.494,-1.66,-3.58,0.06,3.95
31.504,-1.63,-3.28,-0.20,3.67
31.515,-1.81,-2.84,-0.21,3.38
31.525,-1.67,-2.32,-0.15,2.87
31.535,-1.08,-1.34,-0.36,1.76
31.545,-0.39,-0.30,-0.36,0.61
31.555,0.58,0.72,-0.28,0.97
31.565,1.76,1.90,-0.39,2.62
31.575,3.07,2.84,-0.30,4.19
31.585,4.19,3.33,0.05,5.35
31.595,4.64,3.37,0.38,5.75
31.605,4.91,3.24,0.74,5.92
31.615,5.61,3.57,0.91,6.71
31.625,6.18,3.99,1.18,7.45
31.635,6.42,4.21,1.29,7.79
31.645,5.95,4.07,1.37,7.34
31.656,4.85,3.54,1.26,6.14
31.666,3.54,2.84,0.56,4.58
31.676,2.20,2.13,-0.30,3.08
31.686,1.00,1.70,-1.38,2.41
31.696,-0.04,1.46,-2.42,2.83
31.706,-0.42,1.37,-3.21,3.52
31.716,-0.56,1.41,-3.47,3.79
31.726,-0.76,1.49,-3.41,3.79
31.736,-0.75,1.37,-3.22,3.58
31.746,-0.67,1.17,-2.94,3.23
31.757,-0.43,1.05,-2.42,2.67
31.766,-0.09,0.96,-1.65,1.91
31.777,0.23,0.87,-0.88,1.26
31.787,0.54,0.82,-0.34,1.04
31.797,0.91,1.08,-0.17,1.42
31.807,1.32,1.47,-0.20,1.98
31.817,2.14,1.78,-0.35,2.81
31.827,3.01,2.14,-0.40,3.72
31.837,3.72,2.38,-0.46,4.44
31.847,3.82,2.28,-0.59,4.48
31.857,3.47,1.83,-0.49,3.95
31.867,2.80,1.27,-0.63,3.13
31.877,1.79,0.76,-0.84,2.12
31.887,1.12,0.35,-0.82,1.43
31.897,1.08,0.26,-0.85,1.40
31.908,1.30,0.42,-0.61,1.50
31.918,1.42,0.56,-0.65,1.66
31.928,1.41,0.67,-0.34,1.60
31.938,1.26,0.82,0.19,1.52
31.948,0.39,0.73,0.21,0.85
31.958,-0.94,0.42,0.10,1.04
31.968,-1.90,0.30,-0.13,1.93
31.978,-2.40,0.61,-0.31,2.49
31.988,-3.07,0.66,0.20,3.15
31.998,-3.88,1.03,1.22,4.19
32.008,-4.87,1.56,1.82,5.43
32.019,-5.08,2.00,2.25,5.90
32.028,-4.74,2.63,2.81,6.11
32.039,-4.31,3.35,3.47,6.47
32.049,-3.97,4.27,3.77,6.95
32.059,-3.77,4.86,2.79,6.75
32.069,-3.46,5.06,1.83,6.40
32.079,-3.61,4.98,1.67,6.38
32.089,-3.37,4.49,1.42,5.79
32.099,-2.73,3.98,1.52,5.06
32.109,-2.17,3.51,1.84,4.52
32.119,-1.32,2.77,2.38,3.88
32.129,-0.56,1.91,3.15,3.73
32.139,-0.61,0.97,3.87,4.04
32.149,-1.16,-0.20,4.19,4.36
32.159,-1.70,-1.59,4.16,4.76
32.169,-2.31,-2.88,3.99,5.43
32.180,-2.62,-3.73,3.71,5.88
32.190,-2.85,-4.05,3.05,5.81
32.200,-2.64,-4.09,1.62,5.13
32.210,-2.39,-4.02,0.34,4.69
32.220,-2.30,-3.97,-0.31,4.60
32.230,-2.36,-4.13,-0.59,4.79
32.240,-2.34,-4.30,-0.94,4.99
32.250,-2.16,-4.20,-1.58,4.98
32.260,-1.84,-3.85,-2.40,4.89
32.270,-1.38,-3.40,-3.13,4.82
32.281,-0.53,-2.81,-3.18,4.28
32.291,1.34,-1.82,-3.02,3.77
32.301,2.99,-1.14,-2.95,4.35
32.311,4.48,-0.81,-1.60,4.82
32.321,5.87,-0.51,0.61,5.92
32.331,6.49,-0.35,1.83,6.75
32.341,6.60,-0.05,2.14,6.93
32.351,6.50,0.32,1.77,6.75
32.361,6.55,0.53,0.95,6.64
32.371,6.33,0.52,0.42,6.37
32.381,5.74,0.13,0.51,5.77
32.391,5.12,-0.53,0.53,5.18
32.401,4.19,-1.22,1.12,4.51
32.411,3.07,-1.93,1.46,3.91
32.422,2.30,-2.40,1.27,3.55
32.432,1.44,-2.50,1.25,3.14
32.442,0.35,-2.55,0.95,2.75
32.452,-0.77,-2.68,0.30,2.81
32.462,-1.55,-2.82,-0.58,3.27
32.472,-2.13,-2.93,-1.23,3.82
32.482,-2.83,-3.39,-1.78,4.76
32.492,-3.55,-4.22,-2.03,5.87
32.502,-4.03,-5.10,-1.58,6.69
32.512,-4.43,-5.88,-1.04,7.43
32.522,-4.05,-6.31,-0.43,7.51
32.532,-2.82,-6.36,0.13,6.96
32.542,-1.68,-6.02,-0.33,6.25
32.552,-0.81,-5.89,-1.54,6.14
32.563,0.58,-5.78,-2.74,6.43
32.573,2.38,-5.15,-3.64,6.74
32.583,4.89,-4.00,-4.06,7.51
32.593,7.27,-2.44,-3.81,8.56
32.603,8.73,-1.12,-3.45,9.46
32.613,9.25,-0.30,-3.23,9.80
32.623,9.01,0.04,-2.61,9.38
32.633,8.99,-0.01,-1.29,9.09
32.643,8.98,0.04,0.10,8.98
32.653,8.65,0.19,0.99,8.71
32.663,8.57,0.56,1.33,8.69
32.673,8.91,1.32,1.06,9.07
32.683,9.45,1.94,0.46,9.66
32.693,9.51,1.93,-0.42,9.71
32.704,9.07,1.55,-1.67,9.35
32.714,8.96,1.32,-2.64,9.43
32.724,8.39,1.08,-2.84,8.93
32.734,6.42,0.30,-2.72,6.97
32.744,4.63,-0.48,-2.44,5.25
32.754,3.92,-0.80,-1.85,4.41
32.764,3.93,-0.67,-0.84,4.07
32.774,3.99,-0.53,0.04,4.02
32.784,3.52,-0.71,0.82,3.69
32.794,3.13,-0.79,1.25,3.46
32.804,2.44,-0.30,1.29,2.78
32.815,0.72,-0.18,1.32,1.52
32.825,0.08,-0.05,1.18,1.18
32.835,0.15,0.61,1.02,1.20
32.845,0.77,1.47,0.40,1.71
32.855,1.49,2.13,-0.35,2.62
32.865,2.13,2.32,-0.67,3.22
32.875,1.65,2.22,0.42,2.80
32.885,-0.16,1.66,2.29,2.84
32.895,-1.99,1.00,3.45,4.11
32.905,-4.03,0.42,4.19,5.83
32.915,-5.41,0.51,4.46,7.03
32.926,-4.95,1.99,4.19,6.78
32.935,-4.25,3.10,3.57,6.36
32.946,-4.20,3.87,2.61,6.28
32.956,-4.77,4.56,1.59,6.79
32.966,-5.11,5.06,1.09,7.27
32.976,-5.31,5.11,1.49,7.51
32.986,-5.51,4.86,2.67,7.82
32.996,-5.86,4.38,4.22,8.45
33.006,-6.98,3.99,5.86,9.95
33.016,-7.70,3.67,7.36,11.27
33.026,-7.76,3.63,8.53,12.09
33.036,-7.45,3.94,9.14,12.43
33.046,-7.06,4.23,9.38,12.48
33.056,-6.96,4.45,8.86,12.11
33.066,-7.05,4.54,7.95,11.56
33.077,-7.09,4.69,7.09,11.06
33.087,-7.05,4.83,6.40,10.68
33.097,-7.51,4.77,6.09,10.78
33.107,-7.97,4.81,6.08,11.12
33.117,-8.35,5.01,5.90,11.38
33.127,-8.36,5.34,5.53,11.36
33.137,-7.74,5.81,5.13,10.96
33.147,-6.56,6.23,4.74,10.21
33.157,-5.41,6.52,4.40,9.54
33.167,-4.43,6.79,3.91,9.00
33.177,-3.98,6.82,3.33,8.57
33.188,-4.11,6.39,2.36,7.95
33.197,-3.71,6.38,1.49,7.53
33.208,-4.29,7.03,2.93,8.74
33.218,-3.59,7.36,2.92,8.70
33.228,-1.46,8.01,2.00,8.39
33.238,0.69,8.97,1.40,9.10
33.248,2.55,9.47,0.61,9.83
33.258,3.42,9.10,-0.31,9.72
33.268,3.43,8.36,-1.35,9.13
33.278,2.88,7.12,-2.60,8.11
33.288,2.51,5.71,-3.71,7.26
33.298,2.60,4.09,-2.95,5.67
33.309,3.06,2.85,-1.20,4.35
33.318,2.98,2.20,-0.93,3.82
33.329,3.94,1.93,-0.07,4.38
33.339,4.89,2.01,0.27,5.30
33.349,5.29,2.07,0.17,5.69
33.359,4.98,1.85,-0.28,5.32
33.369,4.54,1.28,-0.44,4.73
33.379,3.94,0.30,-0.87,4.05
33.389,3.09,-0.93,-1.10,3.41
33.399,2.30,-1.79,-0.99,3.08
33.409,1.51,-2.83,-0.33,3.22
33.419,1.46,-3.61,0.28,3.90
33.429,2.40,-3.51,0.39,4.27
33.439,2.29,-4.13,0.66,4.76
33.450,1.41,-5.01,0.11,5.20
33.460,1.08,-5.85,-0.56,5.98
33.470,1.05,-6.30,-0.96,6.46
33.480,0.87,-5.91,-1.50,6.16
33.490,0.98,-5.54,-2.14,6.02
33.500,1.68,-5.47,-2.32,6.17
33.510,2.59,-5.42,-1.57,6.20
33.520,3.55,-4.97,0.24,6.11
33.530,4.80,-4.19,1.80,6.63
33.540,6.10,-3.44,2.52,7.44
33.550,7.49,-2.91,2.61,8.46
33.560,8.27,-2.24,2.25,8.86
33.570,8.50,-1.43,1.57,8.77
33.580,8.74,-0.75,0.93,8.82
33.591,8.83,-0.33,0.63,8.86
33.601,8.87,-0.65,0.92,8.95
33.611,7.79,-1.62,0.85,8.00
33.621,6.26,-2.06,1.72,6.81
33.631,5.29,-2.27,2.71,6.36
33.641,4.61,-2.85,3.07,6.23
33.651,3.83,-3.10,3.41,6.00
33.661,3.44,-3.17,3.62,5.92
33.671,3.45,-3.27,3.11,5.68
33.681,3.30,-3.44,2.00,5.17
33.692,2.79,-3.84,0.86,4.82
33.701,2.15,-4.35,0.10,4.85
33.712,1.15,-4.91,-0.18,5.05
33.722,-0.28,-5.58,-0.14,5.59
33.732,-1.81,-5.83,0.13,6.11
33.742,-3.16,-5.81,0.35,6.63
33.752,-3.70,-5.85,0.50,6.94
33.762,-3.95,-5.71,0.84,6.99
33.772,-3.72,-5.47,1.39,6.76
33.782,-2.79,-5.23,1.65,6.15
33.792,-2.40,-4.51,0.85,5.18
33.802,-2.20,-3.41,0.12,4.06
33.812,-2.16,-2.20,-0.35,3.10
33.822,-1.91,-0.92,-1.03,2.35
33.832,-0.46,0.98,-1.33,1.71
33.842,2.04,3.31,-1.30,4.09
33.853,4.38,5.25,-0.93,6.90
33.863,5.95,6.31,-0.01,8.67
33.873,6.49,6.76,1.57,9.50
33.883,6.42,6.66,2.99,9.72
33.893,6.26,5.96,4.30,9.66
33.903,6.14,5.27,5.22,9.63
33.913,6.05,4.81,5.22,9.33
33.923,6.25,4.50,4.31,8.82
33.933,5.97,4.29,3.04,7.96
33.943,5.26,3.82,1.82,6.75
33.953,4.47,3.10,0.77,5.49
33.963,3.42,2.57,-0.07,4.28
33.974,2.42,2.24,-1.07,3.47
33.984,1.69,1.85,-1.81,3.09
33.994,1.04,1.41,-1.59,2.36
34.004,0.57,0.75,-0.91,1.31
34.014,0.49,0.06,-0.04,0.50
34.024,0.79,-0.22,0.64,1.04
34.034,1.16,-0.27,0.78,1.42
34.044,1.20,-0.39,0.59,1.39
34.055,0.79,-0.62,0.46,1.11
34.064,0.24,-0.82,0.28,0.90
34.074,-0.34,-0.86,-0.24,0.96
34.084,-0.77,-0.74,-1.16,1.57
34.095,-0.99,-0.48,-2.41,2.65
34.105,-0.92,-0.18,-3.83,3.95
34.115,-0.58,0.22,-5.16,5.20
34.125,-0.11,0.68,-6.01,6.04
34.135,0.47,1.11,-6.49,6.60
34.145,1.07,1.44,-6.97,7.19
34.155,1.25,1.39,-7.14,7.38
34.165,1.13,1.06,-6.71,6.89
34.175,0.97,0.70,-5.63,5.76
34.185,0.93,0.38,-4.39,4.50
34.195,1.05,0.43,-3.38,3.57
34.205,1.02,0.73,-2.37,2.68
34.216,0.82,0.99,-1.40,1.90
34.226,0.59,1.39,-0.81,1.71
34.236,0.54,2.01,-0.33,2.11
34.246,0.62,2.86,0.50,2.96
34.256,0.37,3.90,1.26,4.11
34.266,-0.14,4.82,1.60,5.08
34.276,-0.94,5.39,1.75,5.75
34.286,-1.93,5.69,1.57,6.21
34.296,-2.88,5.82,1.00,6.57
34.306,-3.98,5.84,0.35,7.07
34.316,-5.09,5.50,-0.38,7.51
34.326,-5.86,5.02,-1.12,7.80
34.336,-6.09,4.65,-1.70,7.85
34.346,-5.58,4.79,-2.14,7.66
34.357,-4.94,4.86,-2.17,7.27
34.367,-4.09,4.55,-1.65,6.34
34.377,-3.82,3.76,0.15,5.36
34.387,-3.26,3.24,1.36,4.79
34.397,-2.12,2.84,2.17,4.15
34.407,-1.38,2.38,2.60,3.78
34.417,-1.48,1.46,3.11,3.74
34.427,-1.39,0.46,3.05,3.39
34.437,-0.99,-0.43,2.68,2.89
34.447,-0.68,-1.12,2.07,2.45
34.457,-0.91,-1.71,1.37,2.37
34.467,-1.18,-2.41,0.53,2.74
34.477,-1.50,-3.13,-0.16,3.47
34.487,-2.46,-3.81,-0.47,4.56
34.498,-3.39,-4.70,-0.38,5.81
34.508,-3.85,-5.67,-0.35,6.86
34.518,-4.50,-6.76,-0.68,8.15
34.528,-4.82,-7.61,-0.94,9.06
34.538,-4.16,-7.77,-1.06,8.88
34.548,-3.04,-7.13,-1.50,7.89
34.558,-1.05,-6.10,-1.47,6.36
34.568,2.60,-4.65,0.21,5.34
34.578,6.97,-2.56,3.80,8.34
34.588,5.90,-1.01,4.92,7.75
34.599,8.73,0.01,5.98,10.58
34.609,11.05,1.68,6.62,12.99
34.619,11.37,2.77,6.27,13.27
34.629,11.44,3.48,5.38,13.11
34.639,11.54,3.64,4.15,12.80
34.649,11.79,3.33,3.03,12.62
34.659,10.18,2.56,3.09,10.94
34.669,7.96,1.50,3.28,8.73
34.679,5.86,0.46,2.81,6.51
34.690,3.78,-0.43,2.13,4.36
34.699,2.20,-1.22,1.45,2.90
34.709,1.07,-1.98,0.86,2.41
34.719,0.25,-2.76,0.61,2.84
34.729,-0.75,-3.78,0.69,3.92
34.740,-1.56,-4.75,0.93,5.08
34.749,-1.83,-5.33,0.78,5.69
34.760,-2.08,-5.65,0.58,6.05
34.770,-2.65,-5.73,0.14,6.32
34.780,-3.62,-5.96,-0.64,7.00
34.790,-4.32,-6.32,-1.63,7.82
34.800,-4.51,-6.54,-2.40,8.30
34.810,-4.01,-6.58,-2.95,8.25
34.820,-3.17,-6.55,-3.34,8.00
34.830,-2.22,-6.24,-3.67,7.57
34.840,-0.87,-5.73,-3.77,6.91
34.850,0.94,-5.56,-3.93,6.87
34.860,2.14,-5.55,-3.69,7.00
34.870,2.54,-5.28,-3.52,6.84
34.881,3.39,-5.02,-3.34,6.92
34.891,5.04,-4.49,-2.33,7.14
34.901,6.51,-3.57,-1.26,7.53
34.911,7.54,-2.62,-0.72,8.01
34.921,8.35,-1.59,-0.54,8.51
34.931,8.69,-0.08,-0.76,8.72
34.941,8.84,1.69,-0.90,9.04
34.951,9.64,3.01,-0.72,10.12
34.961,10.64,3.70,-0.36,11.27
34.971,10.87,4.07,0.07,11.60
34.981,10.23,4.06,0.37,11.02
34.991,9.32,4.04,0.15,10.16
35.001,8.58,3.83,-0.54,9.41
35.012,7.85,3.36,-1.32,8.64
35.022,7.04,2.92,-1.97,7.87
35.032,6.36,2.45,-2.44,7.23
35.042,5.57,1.91,-2.67,6.47
35.052,4.99,1.45,-2.59,5.80
35.062,4.57,0.91,-1.91,5.04
35.072,4.16,0.30,-0.97,4.28
35.082,3.66,-0.20,-0.24,3.67
35.092,3.08,-0.50,0.53,3.16
35.102,2.75,-0.34,1.20,3.01
35.112,2.16,0.02,2.02,2.96
35.123,1.02,0.40,2.98,3.18
35.132,0.08,0.48,3.22,3.25
35.143,-0.42,0.44,2.93,2.99
35.153,-0.43,0.94,2.63,2.83
35.163,-0.41,1.42,2.16,2.62
35.173,-1.08,1.55,1.68,2.53
35.183,-1.47,1.63,1.61,2.73
35.193,-1.67,1.74,1.91,3.08
35.203,-1.79,1.93,2.55,3.67
35.213,-1.80,2.10,3.15,4.19
35.223,-1.92,2.20,3.67,4.69
35.233,-2.64,2.26,4.22,5.46
35.244,-4.31,2.49,4.51,6.71
35.253,-6.09,2.81,3.93,7.77
35.264,-7.12,3.15,2.83,8.29
35.274,-7.54,3.75,1.74,8.60
35.284,-7.57,4.46,1.01,8.85
35.294,-7.23,5.27,0.65,8.97
35.304,-6.68,5.98,0.82,9.00
35.314,-6.27,6.45,1.58,9.14
35.324,-6.02,6.73,2.63,9.41
35.334,-5.99,6.81,3.87,9.86
35.344,-6.53,6.64,5.23,10.68
35.354,-7.14,6.08,6.33,11.32
35.364,-7.95,5.61,7.17,12.09
35.374,-8.73,5.94,8.10,13.31
35.384,-8.27,6.05,8.28,13.17
35.395,-7.52,6.05,7.88,12.46
35.405,-7.48,7.27,8.77,13.63
35.415,-7.24,8.26,9.05,14.23
35.425,-6.73,8.19,7.85,13.19
35.435,-5.70,7.62,5.69,11.09
35.445,-4.86,7.30,3.90,9.60
35.455,-4.43,7.39,2.77,9.05
35.465,-4.01,7.57,2.06,8.81
35.475,-3.68,7.59,1.50,8.57
35.485,-3.39,7.14,0.96,7.96
35.495,-3.11,6.71,1.07,7.47
35.506,-2.46,6.67,1.94,7.37
35.515,-1.93,6.98,0.95,7.30
35.526,-0.29,7.39,0.02,7.40
35.536,1.32,7.91,-0.39,8.03
35.546,2.44,8.22,-0.20,8.58
35.556,3.24,8.21,0.32,8.84
35.566,3.58,8.11,0.98,8.92
35.576,3.92,7.33,1.38,8.43
35.586,4.63,6.11,1.11,7.75
35.596,4.88,4.91,0.38,6.93
35.606,4.68,3.75,-0.17,5.99
35.616,4.57,2.73,-0.69,5.37
35.627,4.19,1.81,-0.98,4.67
35.636,3.98,1.08,-0.87,4.22
35.647,4.49,0.57,-0.87,4.61
35.657,4.63,0.21,-0.90,4.72
35.667,4.13,-0.32,-0.98,4.26
35.677,3.74,-0.69,-1.27,4.01
35.687,3.42,-1.08,-1.48,3.88
35.697,2.63,-2.45,-1.43,3.87
35.707,2.42,-2.49,-2.01,4.01
35.717,2.35,-2.77,-2.10,4.19
35.727,2.07,-3.76,-1.38,4.51
35.737,2.14,-4.53,-0.51,5.04
35.747,2.33,-4.96,0.34,5.49
35.757,2.44,-5.16,1.00,5.80
35.768,2.15,-5.58,1.29,6.12
35.778,1.71,-6.17,1.30,6.53
35.788,1.25,-6.52,1.12,6.73
35.798,0.75,-6.51,0.50,6.57
35.808,0.79,-5.81,-0.60,5.89
35.818,1.70,-4.67,-1.92,5.33
35.828,2.82,-3.53,-2.97,5.41
35.838,3.62,-2.54,-4.13,6.05
35.848,4.54,-2.19,-4.77,6.94
35.859,5.71,-1.98,-3.15,6.82
35.868,7.12,-1.05,-0.44,7.21
35.878,8.67,0.04,1.11,8.74
35.889,9.85,1.28,1.89,10.11
35.898,10.90,2.12,2.63,11.41
35.909,10.61,2.46,2.47,11.17
35.918,9.19,1.90,1.31,9.47
35.929,8.66,1.03,1.40,8.83
35.939,7.74,0.41,1.64,7.92
35.949,6.38,-0.50,1.67,6.62
35.959,5.04,-1.56,1.43,5.46
35.969,3.96,-2.54,1.16,4.84
35.979,3.17,-3.42,0.96,4.76
35.989,2.59,-4.26,0.62,5.03
35.999,2.06,-5.03,0.24,5.44
36.010,1.45,-5.68,0.05,5.86
36.019,0.68,-6.25,0.10,6.29
36.030,-0.14,-6.81,0.26,6.81
36.040,-0.93,-7.35,0.61,7.44
36.050,-1.80,-7.83,0.99,8.10
36.060,-2.51,-8.18,1.31,8.66
36.070,-2.92,-8.42,1.44,9.03
36.080,-3.08,-8.48,1.19,9.10
36.090,-3.25,-8.39,0.83,9.04
36.100,-3.06,-8.04,0.61,8.63
36.110,-2.30,-7.03,0.25,7.40
36.120,-1.50,-5.26,-0.25,5.47
36.130,-1.31,-3.42,-0.15,3.67
36.140,-0.43,-1.60,0.17,1.66
36.150,1.72,0.65,0.41,1.89
36.161,3.84,2.82,0.79,4.83
36.171,5.27,4.49,1.37,7.06
36.181,5.81,5.59,2.15,8.34
36.191,5.58,5.95,2.88,8.65
36.201,4.66,5.86,3.60,8.31
36.211,4.05,5.71,4.14,8.14
36.221,4.54,5.84,4.01,8.41
36.231,5.14,6.06,2.96,8.48
36.241,4.96,6.16,1.68,8.08
36.251,4.23,5.89,0.33,7.26
36.261,3.19,5.19,-0.60,6.12
36.272,2.08,4.40,-1.03,4.98
36.281,0.98,3.76,-1.16,4.05
36.292,0.09,3.25,-1.29,3.50
36.302,-0.25,3.07,-1.54,3.44
36.312,-0.35,3.05,-1.66,3.49
36.322,-0.31,2.99,-1.65,3.43
36.332,-0.06,2.92,-1.53,3.30
36.342,0.18,2.87,-1.34,3.17
36.352,0.17,2.67,-1.13,2.91
36.362,0.08,2.23,-0.80,2.37
36.372,-0.11,1.70,-0.45,1.76
36.382,-0.29,1.21,-0.17,1.25
36.393,-0.11,0.97,-0.17,0.99
36.402,0.14,1.05,-0.33,1.11
36.413,0.50,1.16,-0.55,1.38
36.423,0.75,1.12,-0.84,1.59
36.433,1.05,0.92,-1.09,1.77
36.443,1.48,0.73,-1.25,2.07
36.453,1.88,0.73,-1.65,2.60
36.463,2.26,0.87,-2.12,3.22
36.473,2.38,0.96,-2.43,3.54
36.483,2.53,1.13,-2.66,3.84
36.493,2.66,1.38,-2.79,4.10
36.503,2.63,1.50,-2.59,3.99
36.513,2.38,1.42,-2.16,3.51
36.523,2.20,1.42,-1.77,3.16
36.533,1.96,1.63,-1.11,2.78
36.544,1.51,1.90,-0.28,2.44
36.554,0.84,2.07,-0.03,2.24
36.564,-0.17,2.09,-0.21,2.11
36.574,-1.61,2.04,-0.54,2.66
36.584,-3.14,2.00,-0.91,3.83
36.594,-4.28,2.14,-1.13,4.92
36.604,-4.90,2.57,-1.15,5.65
36.615,-4.96,3.15,-1.18,5.99
36.624,-4.88,3.60,-1.05,6.16
36.634,-4.81,3.93,-0.15,6.21
36.644,-4.76,4.24,1.10,6.47
36.654,-4.76,4.32,1.90,6.71
36.664,-4.71,4.36,2.17,6.78
36.675,-4.30,4.26,1.84,6.33
36.685,-3.92,3.97,1.63,5.81
36.695,-3.55,3.63,1.66,5.35
36.705,-2.78,3.28,1.65,4.61
36.715,-1.66,3.09,1.45,3.80
36.725,-0.54,2.97,0.98,3.18
36.735,0.21,2.85,0.48,2.90
36.745,0.52,2.28,0.25,2.36
36.755,0.47,1.31,0.71,1.56
36.765,0.21,0.46,1.70,1.78
36.775,0.07,-0.47,2.52,2.56
36.785,-0.04,-1.42,3.09,3.40
36.796,-0.50,-2.26,3.35,4.08
36.806,-1.22,-3.18,3.34,4.77
36.816,-1.94,-4.12,3.26,5.60
36.826,-2.49,-5.06,3.09,6.43
36.836,-2.83,-5.95,2.62,7.09
36.846,-3.09,-6.67,2.03,7.63
36.856,-2.80,-7.07,1.69,7.79
36.866,-1.69,-7.14,1.17,7.43
36.876,-0.43,-6.44,0.20,6.46
36.886,0.37,-4.99,-1.28,5.16
36.896,1.35,-3.32,-3.11,4.74
36.906,2.95,-1.86,-4.35,5.57
36.916,4.38,-0.64,-4.16,6.08
36.926,5.87,-0.41,-1.18,6.00
36.937,5.73,-1.46,1.41,6.08
36.947,6.60,-1.51,3.18,7.48
36.957,7.42,-0.71,5.96,9.55
36.967,8.10,0.45,8.04,11.42
36.977,8.65,1.23,8.05,11.88
36.987,8.31,1.22,6.47,10.60
36.997,7.32,0.77,4.28,8.51
37.007,6.64,0.45,2.05,6.97
37.017,6.14,0.20,0.30,6.15
37.027,5.35,-0.22,-0.97,5.44
37.037,4.40,-0.86,-1.64,4.77
37.047,3.49,-1.59,-1.71,4.21
37.058,2.59,-2.18,-1.24,3.61
37.068,2.06,-2.74,-0.65,3.49
37.078,1.82,-3.42,-0.03,3.88
37.088,1.41,-4.23,0.53,4.49
37.098,0.79,-5.10,0.95,5.25
37.108,0.36,-5.88,1.24,6.02
37.118,0.36,-6.31,1.28,6.45
37.128,0.86,-6.25,0.96,6.38
37.138,1.33,-5.99,0.10,6.14
37.148,1.51,-5.61,-1.12,5.92
37.158,1.88,-5.05,-2.44,5.91
37.168,2.02,-4.67,-3.75,6.31
37.179,2.15,-4.58,-4.70,6.90
37.188,2.99,-4.42,-4.97,7.30
37.199,3.94,-4.09,-4.09,6.99
37.209,4.49,-3.68,-2.26,6.23
37.219,5.35,-2.92,-1.13,6.20
37.229,5.85,-1.77,-0.33,6.12
37.239,5.81,-0.55,0.00,5.84
37.249,5.39,0.38,-0.02,5.40
37.259,4.68,0.97,-0.28,4.78
37.269,4.07,1.49,-0.66,4.39
37.279,3.64,1.86,-0.41,4.11
37.289,3.55,2.03,0.22,4.10
37.299,3.96,2.32,0.56,4.62
37.309,4.71,2.90,0.40,5.54
37.320,5.34,3.45,-0.01,6.36
37.330,5.48,3.59,-0.41,6.56
37.340,5.04,3.42,-0.67,6.12
37.350,4.10,3.10,-0.44,5.15
37.360,3.30,2.65,-0.28,4.24
37.370,2.56,2.08,-0.43,3.33
37.380,1.76,1.91,-0.68,2.69
37.390,0.94,1.92,-0.55,2.21
37.400,0.67,2.08,-0.44,2.23
37.410,1.00,2.54,-0.50,2.77
37.420,1.19,2.82,-0.27,3.08
37.430,1.08,2.91,-0.19,3.11
37.440,0.52,2.78,0.29,2.84
37.451,-0.33,2.38,0.76,2.52
37.461,-1.22,1.91,1.16,2.55
37.471,-1.84,1.59,1.54,2.89
37.481,-1.88,1.73,1.65,3.04
37.491,-2.28,1.99,1.85,3.54
37.501,-3.34,1.97,2.25,4.48
37.511,-4.23,1.88,2.36,5.20
37.521,-4.88,1.98,2.34,5.77
37.531,-5.13,2.35,2.13,6.03
37.541,-5.32,2.87,1.95,6.35
37.551,-5.78,3.41,2.21,7.06
37.561,-6.17,3.96,2.78,7.84
37.571,-6.12,4.35,3.65,8.35
37.582,-6.29,4.54,4.74,9.09
37.591,-6.92,4.74,5.62,10.10
37.602,-7.60,4.97,6.17,10.98
37.612,-8.21,5.18,6.42,11.64
37.622,-8.49,5.36,6.37,11.89
37.632,-8.24,5.52,6.09,11.63
37.642,-7.60,5.73,5.75,11.12
37.652,-6.84,5.87,5.53,10.57
37.662,-6.37,5.82,5.46,10.21
37.672,-6.13,5.60,5.40,9.91
37.682,-6.17,5.39,5.09,9.65
37.692,-6.29,5.33,4.60,9.44
37.703,-6.41,5.36,4.31,9.40
37.712,-6.38,5.51,4.26,9.45
37.723,-5.74,5.96,4.41,9.37
37.733,-4.78,6.65,4.51,9.35
37.743,-4.03,7.22,4.26,9.30
37.753,-3.40,7.21,3.71,8.80
37.763,-2.78,7.10,2.96,8.18
37.773,-2.13,7.31,2.01,7.88
37.783,-1.50,7.54,1.17,7.77
37.793,-0.94,7.68,0.21,7.74
37.803,-0.28,7.71,-0.69,7.74
37.813,0.35,7.47,-1.26,7.58
37.823,0.89,7.29,-1.27,7.45
37.833,1.37,7.38,-0.91,7.56
37.844,1.73,7.17,-0.66,7.41
37.854,1.98,6.88,-0.49,7.18
37.864,2.23,6.29,-0.21,6.68
37.874,2.14,5.47,-0.07,5.87
37.884,2.04,4.36,-0.03,4.82
37.894,2.37,3.43,0.01,4.17
37.904,3.00,2.86,0.14,4.15
37.914,3.73,2.17,-0.04,4.32
37.924,4.26,1.39,-0.46,4.50
37.934,4.52,0.60,-1.12,4.70
37.945,4.36,-0.06,-1.71,4.68
37.954,3.94,-0.62,-2.00,4.46
37.966,3.66,-1.41,-2.27,4.53
37.974,3.14,-2.37,-1.97,4.40
37.985,2.35,-3.40,-1.62,4.44
37.995,1.89,-3.68,-1.46,4.38
38.005,1.97,-3.77,-1.22,4.43
38.015,1.84,-4.22,-0.88,4.69
38.025,1.45,-5.13,-0.38,5.34
38.035,1.10,-6.22,0.05,6.32
38.045,0.50,-7.11,0.36,7.13
38.055,-0.06,-7.77,0.68,7.80
38.065,-0.23,-8.33,0.98,8.39
38.075,-0.03,-8.63,1.07,8.70
38.085,0.60,-8.20,0.67,8.25
38.095,1.65,-6.78,-0.40,6.99
38.106,3.22,-5.16,-2.14,6.45
38.116,4.75,-3.86,-3.41,7.01
38.126,6.44,-2.87,-3.26,7.77
38.136,7.78,-1.77,-2.03,8.23
38.146,9.05,-0.57,0.16,9.07
38.156,10.71,0.42,2.94,11.11
38.166,11.12,1.33,3.58,11.76
38.176,11.25,2.12,3.02,11.84
38.186,11.64,2.41,2.36,12.12
38.196,10.78,1.88,1.39,11.03
38.206,9.32,0.80,0.66,9.38
38.216,7.92,-0.45,0.06,7.93
38.227,6.68,-1.39,-0.29,6.83
38.237,5.68,-2.10,-0.24,6.06
38.247,4.58,-3.04,0.41,5.51
38.257,3.45,-4.10,0.90,5.43
38.267,2.16,-5.00,1.33,5.61
38.277,1.06,-5.65,1.85,6.05
38.287,0.20,-6.06,2.40,6.52
38.297,-0.25,-6.27,2.86,6.90
38.307,-0.39,-6.44,2.98,7.11
38.317,-0.41,-6.47,2.85,7.08
38.327,-0.32,-6.39,2.49,6.86
38.337,-0.14,-6.28,1.92,6.57
38.348,-0.16,-6.10,1.23,6.23
38.358,-0.49,-5.85,0.52,5.89
38.368,-1.12,-5.67,-0.01,5.78
38.378,-1.63,-5.33,-0.37,5.59
38.388,-1.91,-4.79,-0.66,5.20
38.398,-1.63,-3.89,-0.60,4.26
38.408,-0.81,-2.60,-0.36,2.75
38.418,-0.16,-0.95,-0.85,1.29
38.428,0.46,0.81,-1.21,1.53
38.438,2.18,2.44,-0.80,3.37
38.448,3.97,4.03,-0.07,5.66
38.458,5.23,5.76,0.40,7.79
38.469,6.04,7.15,0.56,9.38
38.479,5.92,7.70,0.63,9.74
38.489,5.12,7.40,0.72,9.03
38.499,4.54,6.74,0.73,8.16
38.509,4.23,6.07,0.80,7.44
38.519,4.11,5.54,1.00,6.96
38.529,3.84,5.06,1.12,6.45
38.539,3.24,4.51,1.02,5.64
38.549,2.76,3.96,0.74,4.89
38.559,2.09,3.49,0.43,4.09
38.569,1.09,2.95,0.11,3.15
38.579,0.32,2.44,-0.08,2.46
38.589,0.00,2.16,-0.38,2.19
38.599,-0.05,1.91,-0.82,2.08
38.610,-0.09,1.61,-1.28,2.06
38.620,-0.41,1.23,-1.68,2.12
38.630,-0.59,0.89,-1.83,2.12
38.640,-0.68,0.54,-1.72,1.93
38.650,-0.82,0.09,-1.48,1.70
38.660,-0.97,-0.29,-1.18,1.56
38.670,-1.14,-0.50,-1.02,1.61
38.680,-0.96,-0.50,-1.09,1.54
38.690,-0.38,-0.05,-1.43,1.48
38.700,0.42,0.83,-1.87,2.08
38.710,1.60,1.95,-2.44,3.51
38.720,2.88,2.97,-2.81,5.00
38.731,4.10,3.69,-3.02,6.29
38.741,4.67,3.82,-3.30,6.88
38.751,4.41,3.25,-3.54,6.52
38.761,3.77,2.26,-3.59,5.68
38.771,2.80,1.23,-3.45,4.61
38.781,1.53,0.26,-2.99,3.37
38.791,0.50,-0.61,-2.46,2.58
38.801,0.03,-1.12,-1.91,2.21
38.811,0.11,-1.23,-1.37,1.84
38.821,0.36,-1.13,-0.76,1.41
38.831,0.53,-0.88,-0.38,1.10
38.841,0.46,-0.50,-0.24,0.72
38.852,-0.52,-0.20,-0.17,0.58
38.861,-2.21,-0.12,-0.14,2.22
38.872,-3.75,-0.15,-0.23,3.76
38.882,-5.23,-0.03,-0.11,5.23
38.892,-6.62,0.21,0.02,6.62
38.902,-7.66,0.75,-0.39,7.71
38.912,-8.04,1.91,-0.81,8.31
38.922,-7.16,3.72,-0.83,8.11
38.932,-5.40,6.10,-0.77,8.18
38.942,-3.34,8.46,-0.72,9.12
38.953,-1.25,10.28,-0.50,10.37
38.962,0.47,11.27,0.16,11.28
38.973,1.60,11.32,1.04,11.48
38.982,2.16,10.63,2.00,11.03
38.993,2.22,9.31,2.69,9.94
39.003,2.19,7.63,3.12,8.52
39.013,1.97,5.81,3.42,7.03
39.023,1.18,3.77,3.34,5.17
39.033,0.03,1.78,2.95,3.44
39.043,-0.03,0.05,4.00,4.00
39.053,0.12,-1.37,3.10,3.39
39.063,-1.92,-2.18,0.25,2.91
39.073,-0.60,-2.07,1.00,2.38
39.083,0.18,-2.26,0.77,2.39
39.093,0.47,-2.41,1.46,2.86
39.103,0.85,-2.48,2.27,3.46
39.114,1.27,-2.53,2.61,3.85
39.124,0.98,-2.65,2.64,3.86
39.134,0.39,-3.08,2.17,3.79
39.144,0.08,-3.47,1.47,3.77
39.154,-0.06,-3.67,0.59,3.72
39.164,-0.34,-3.85,0.03,3.87
39.174,-0.69,-4.29,-0.21,4.35
39.184,-0.97,-4.80,-0.20,4.90
39.194,-1.26,-5.39,-0.15,5.54
39.204,-1.54,-5.76,-0.12,5.96
39.214,-1.47,-5.52,-0.37,5.72
39.224,-0.59,-5.00,-0.77,5.09
39.234,1.00,-4.69,-0.63,4.84
39.244,3.06,-4.30,0.14,5.28
39.255,4.60,-3.43,1.67,5.98
39.265,5.45,-2.56,2.89,6.67
39.275,5.61,-2.00,3.28,6.80
39.285,5.64,-1.63,3.73,6.95
39.295,6.76,-1.42,4.75,8.39
39.305,2.52,-1.68,1.17,3.25
39.315,2.39,-1.93,0.61,3.13
39.325,1.50,-1.47,0.49,2.16
39.335,1.67,-1.66,-0.42,2.39
39.345,1.90,-1.93,-1.36,3.03
39.355,1.35,-1.54,-2.03,2.89
39.365,1.18,-1.22,-1.62,2.35
39.375,1.11,-1.36,-1.00,2.02
39.385,1.01,-1.39,-0.37,1.76
39.396,1.08,-1.57,0.09,1.91
39.406,1.47,-1.92,0.73,2.53
39.416,1.66,-1.98,1.21,2.85
39.426,1.81,-2.00,1.26,2.98
39.436,1.80,-2.01,0.88,2.84
39.446,1.79,-1.62,0.13,2.42
39.456,1.61,-1.22,-0.46,2.07
39.466,1.32,-0.99,-0.75,1.82
39.476,0.86,-1.09,-0.74,1.57
39.486,0.52,-1.51,-0.61,1.71
39.497,0.31,-2.04,-0.53,2.13
39.506,0.11,-2.55,-0.49,2.60
39.517,-0.31,-2.85,-0.30,2.88
39.527,-0.73,-3.02,-0.01,3.11
39.537,-0.83,-3.12,0.26,3.24
39.547,-0.36,-3.13,0.25,3.16
39.557,0.40,-2.85,0.08,2.88
39.567,1.83,-2.42,-0.15,3.03
39.577,4.09,-1.81,-0.35,4.48
39.587,6.14,-0.89,-0.62,6.24
39.597,6.93,-0.03,-1.03,7.01
39.607,6.51,0.63,-1.68,6.75
39.617,5.62,1.18,-2.23,6.16
39.627,5.35,1.40,-2.86,6.22
39.638,5.40,1.21,-3.06,6.32
39.647,5.25,0.89,-2.54,5.90
39.658,5.02,0.74,-1.73,5.36
39.668,5.26,0.75,-1.12,5.43
39.678,5.66,0.82,-1.01,5.81
39.688,5.55,0.81,-1.35,5.77
39.698,4.83,0.57,-1.88,5.22
39.708,3.90,0.10,-2.24,4.50
39.718,2.85,-0.47,-2.24,3.66
39.728,2.50,-0.75,-1.94,3.25
39.738,2.72,-0.77,-1.60,3.25
39.748,2.83,-0.72,-1.05,3.10
39.759,2.53,-0.68,-0.33,2.64
39.768,1.80,-0.77,-0.05,1.96
39.779,1.17,-0.61,-0.26,1.35
39.789,-0.19,-0.74,0.15,0.78
39.799,-1.43,-0.84,0.33,1.69
39.809,-1.69,-0.58,0.24,1.80
39.819,-2.04,-0.14,-0.01,2.04
39.829,-2.95,0.40,-0.21,2.98
39.839,-3.97,1.10,-0.19,4.12
39.849,-5.43,2.02,0.14,5.80
39.859,-6.87,2.83,0.63,7.46
39.869,-7.49,3.63,0.95,8.37
39.880,-7.81,4.40,1.04,9.02
39.889,-8.13,4.89,0.95,9.53
39.899,-8.23,5.16,1.50,9.83
39.910,-8.11,5.62,2.75,10.24
39.920,-7.73,6.02,2.71,10.16
39.930,-6.81,5.99,2.86,9.51
39.940,-5.73,6.03,2.97,8.83
39.950,-4.99,6.16,2.69,8.37
39.960,-4.51,6.03,2.32,7.88
39.970,-3.97,5.68,1.74,7.14
39.980,-3.43,5.17,1.24,6.33
39.990,-3.15,4.49,0.85,5.55
40.000,-2.85,3.62,0.41,4.62
40.010,-2.42,2.60,0.07,3.55
40.021,-2.23,1.52,-0.04,2.70
40.030,-2.22,0.38,0.04,2.26
40.041,-2.37,-0.70,0.13,2.47
40.051,-2.74,-1.70,0.14,3.23
40.061,-3.24,-2.57,0.00,4.13
40.071,-3.79,-3.35,-0.39,5.07
40.081,-4.46,-4.01,-1.14,6.11
40.091,-4.74,-4.35,-2.24,6.82
40.101,-5.02,-4.31,-3.48,7.48
40.111,-4.88,-3.28,-4.75,7.56
40.121,-3.69,-1.12,-5.75,6.92
40.131,-1.61,1.50,-6.21,6.59
40.141,0.50,2.80,-5.31,6.03
40.151,2.54,2.97,-3.88,5.51
40.162,4.10,3.42,-1.97,5.69
40.172,4.44,4.39,-0.05,6.24
40.182,4.45,4.91,1.67,6.83
40.192,4.52,5.02,3.25,7.50
40.202,4.13,4.89,4.46,7.80
40.212,3.76,4.76,5.20,7.99
40.222,3.45,4.38,5.45,7.80
40.232,2.86,3.54,4.95,6.72
40.242,2.10,2.72,4.02,5.28
40.252,1.11,2.07,2.92,3.75
40.262,0.64,1.44,1.72,2.34
40.272,0.52,0.76,0.41,1.01
40.282,0.48,0.36,-0.48,0.77
40.293,0.34,0.07,-1.08,1.14
40.303,0.09,-0.12,-1.50,1.51
40.313,0.01,-0.16,-1.84,1.84
40.323,0.13,-0.25,-2.31,2.32
40.333,-0.15,-0.34,-2.60,2.63
40.343,-0.45,-0.36,-2.73,2.80
40.353,-0.55,-0.44,-2.60,2.69
40.363,-0.76,-0.75,-1.77,2.06
40.373,-0.65,-1.28,-1.12,1.82
40.383,-1.31,-1.98,-1.10,2.62
40.393,-1.99,-2.38,-0.91,3.23
40.404,-2.11,-2.55,-0.51,3.35
40.413,-2.01,-2.55,-0.17,3.26
40.424,-1.70,-2.65,0.09,3.15
40.434,-1.60,-3.19,0.19,3.57
40.444,-1.67,-3.77,0.08,4.12
40.454,-1.72,-4.01,-0.24,4.37
40.464,-1.70,-3.72,-0.60,4.13
40.474,-1.23,-3.04,-0.94,3.41
40.484,-0.42,-2.16,-1.44,2.63
40.494,0.30,-1.37,-1.53,2.08
40.504,1.09,-0.71,-1.17,1.75
40.514,1.50,-0.24,-0.43,1.58
40.524,1.69,-0.11,0.69,1.83
40.534,2.11,0.01,1.75,2.74
40.545,2.52,0.18,2.64,3.65
40.554,2.67,0.46,3.32,4.29
40.565,2.96,0.65,3.49,4.62
40.575,3.15,0.63,3.25,4.57
40.585,2.94,0.22,2.73,4.02
40.595,2.73,-0.35,1.91,3.35
40.605,2.43,-0.82,1.14,2.81
40.615,2.01,-1.21,0.60,2.43
40.625,1.53,-1.68,0.11,2.28
40.635,1.29,-2.24,-0.33,2.61
40.645,1.42,-2.73,-0.55,3.13
40.655,1.92,-3.01,-0.45,3.59
40.665,2.46,-2.94,-0.27,3.85
40.676,2.25,-2.81,-0.15,3.60
40.686,1.51,-2.92,-0.37,3.31
40.696,0.85,-3.03,-0.80,3.25
40.706,0.60,-2.85,-1.14,3.13
40.716,0.57,-2.54,-1.11,2.83
40.726,0.82,-2.25,-1.01,2.60
40.736,0.98,-1.84,-1.11,2.36
40.746,0.95,-1.15,-1.42,2.06
40.756,0.97,-0.51,-1.89,2.19
40.766,1.13,-0.10,-2.47,2.72
40.776,1.24,0.19,-3.14,3.38
40.786,1.02,0.59,-3.63,3.81
40.796,0.72,0.92,-3.86,4.03
40.807,0.73,1.24,-3.78,4.04
40.817,1.13,1.52,-3.27,3.78
40.827,1.72,1.99,-2.54,3.65
40.837,2.11,2.59,-2.00,3.90
40.847,2.12,3.11,-1.64,4.11
40.857,1.93,3.27,-1.39,4.05
40.867,1.67,3.06,-1.40,3.76
40.877,1.15,2.55,-1.68,3.26
40.887,0.49,1.92,-1.82,2.69
40.897,0.23,1.42,-1.69,2.22
40.907,0.36,1.11,-1.20,1.67
40.917,0.45,0.79,-0.50,1.03
40.928,0.33,0.51,-0.20,0.64
40.938,0.11,0.56,-0.27,0.63
40.948,0.09,0.64,-0.36,0.73
40.958,-0.05,0.59,-0.26,0.65
40.968,-0.07,0.55,-0.17,0.58
40.978,0.06,0.64,-0.05,0.64
40.988,0.30,0.75,0.41,0.90
40.998,0.60,0.75,0.92,1.33
41.008,0.41,0.73,1.34,1.58
41.018,-0.16,0.54,1.91,1.99
41.028,-0.35,0.26,2.64,2.67
41.038,-0.18,0.01,3.34,3.35
41.048,-0.03,-0.19,4.03,4.03
41.058,-0.13,-0.45,4.42,4.45
41.069,0.28,-0.25,4.49,4.50
41.079,0.71,0.34,4.52,4.59
41.089,1.02,0.69,4.32,4.50
41.099,1.19,0.77,4.24,4.47
41.109,1.41,1.12,4.48,4.83
41.119,1.66,1.67,4.78,5.33
41.129,1.79,1.93,4.93,5.59
41.139,1.79,2.11,4.85,5.58
41.149,1.75,2.29,4.77,5.57
41.159,1.64,2.07,5.03,5.68
41.169,1.40,1.51,5.65,6.01
41.179,1.12,1.03,6.46,6.64
41.190,0.82,0.80,6.98,7.08
41.199,0.11,0.51,6.72,6.74
41.210,-0.60,0.43,5.94,5.98
41.220,-0.73,0.40,5.12,5.19
41.230,-0.72,0.30,4.32,4.39
41.240,-0.78,0.25,3.58,3.67
41.250,-0.66,0.38,2.97,3.07
41.260,-0.58,0.54,2.74,2.85
41.270,-0.39,0.55,2.68,2.76
41.280,-0.31,0.78,2.48,2.61
41.290,-0.56,1.05,2.36,2.65
41.300,-0.86,0.99,2.24,2.60
41.311,-1.22,0.75,2.10,2.55
41.321,-1.77,0.62,2.23,2.92
41.331,-2.09,0.55,2.41,3.24
41.341,-1.70,0.81,2.69,3.28
41.351,-0.55,1.76,2.89,3.42
41.361,-0.38,2.88,2.55,3.87
41.371,-1.15,3.59,1.52,4.07
41.381,-1.52,3.77,0.37,4.09
41.391,-1.35,3.84,-0.16,4.07
41.401,-1.36,3.70,-0.10,3.95
41.411,-1.01,3.13,0.07,3.29
41.421,-0.49,2.36,0.29,2.43
41.431,-0.53,1.42,0.55,1.61
41.441,-0.53,0.63,0.93,1.24
41.452,-0.11,0.23,1.42,1.44
41.462,-0.12,-0.03,1.64,1.64
41.472,-0.45,-0.09,1.02,1.12
41.482,-1.03,-0.50,0.17,1.16
41.492,-1.02,-0.74,-0.49,1.35
41.502,-0.59,-0.69,-1.13,1.45
41.512,-0.48,-0.68,-1.68,1.87
41.522,-0.45,-0.76,-2.14,2.31
41.532,-0.37,-0.73,-2.66,2.78
41.542,-0.29,-0.73,-2.91,3.01
41.552,-0.34,-0.78,-2.88,3.00
41.562,-0.37,-0.97,-2.71,2.90
41.573,-0.24,-1.13,-2.36,2.63
41.582,0.15,-1.10,-1.93,2.23
41.593,0.49,-1.20,-1.47,1.96
41.603,0.60,-1.35,-1.02,1.80
41.613,0.51,-1.44,-0.65,1.66
41.623,0.21,-1.56,-0.41,1.63
41.633,-0.08,-1.80,-0.33,1.84
41.643,-0.37,-2.09,-0.43,2.17
41.653,-0.51,-2.19,-0.75,2.37
41.663,-0.48,-2.13,-1.27,2.52
41.673,-0.21,-2.04,-1.92,2.81
41.683,0.02,-2.10,-2.39,3.18
41.694,0.29,-2.18,-2.22,3.12
41.703,0.61,-2.08,-1.54,2.66
41.714,0.97,-1.91,-0.74,2.27
41.724,1.21,-1.80,0.12,2.18
41.734,1.63,-1.53,0.87,2.40
41.744,1.86,-1.17,1.14,2.47
41.754,2.05,-0.86,1.02,2.45
41.764,2.32,-0.60,0.60,2.47
41.774,2.33,-0.59,0.16,2.41
41.784,2.19,-0.67,-0.41,2.33
41.794,1.87,-0.72,-1.02,2.25
41.804,1.57,-0.83,-1.53,2.34
41.814,1.09,-1.00,-1.89,2.40
41.824,0.69,-1.21,-2.06,2.49
41.835,0.59,-1.27,-2.20,2.61
41.845,0.57,-1.29,-2.17,2.59
41.855,0.60,-1.37,-1.95,2.46
41.865,0.68,-1.50,-1.58,2.28
41.875,0.94,-1.58,-1.25,2.22
41.885,1.00,-1.67,-1.05,2.21
41.895,0.81,-1.88,-1.02,2.28
41.905,0.54,-2.10,-1.14,2.45
41.915,0.38,-2.15,-1.62,2.72
41.925,0.55,-2.06,-2.15,3.03
41.935,0.99,-1.98,-2.61,3.42
41.945,1.55,-1.92,-3.03,3.91
41.956,1.97,-2.01,-3.26,4.30
41.965,2.34,-2.13,-3.33,4.60
41.976,2.97,-1.88,-3.57,5.01
41.986,3.43,-1.26,-3.71,5.21
41.996,4.02,-0.49,-3.65,5.45
42.006,4.89,0.33,-3.46,6.00
42.016,6.03,1.26,-3.01,6.85
42.026,6.96,2.10,-2.30,7.63
42.036,7.86,2.54,-1.75,8.44
42.046,8.50,2.48,-1.37,8.96
42.056,8.21,2.23,-0.98,8.56
42.066,7.30,1.95,-0.90,7.61
42.077,6.15,1.53,-1.22,6.46
42.086,4.93,1.07,-1.86,5.37
42.097,3.68,0.44,-2.53,4.49
42.107,2.51,-0.17,-3.09,3.98
42.117,1.57,-0.39,-3.38,3.75
42.127,1.15,-0.47,-3.42,3.63
42.137,0.91,-0.55,-3.18,3.35
42.147,0.78,-0.45,-2.67,2.82
42.157,0.45,-0.44,-2.14,2.24
42.167,-0.13,-0.35,-1.99,2.03
42.177,-0.42,-0.10,-1.99,2.04
42.187,-0.49,0.23,-1.66,1.74
42.197,-0.62,0.49,-1.01,1.28
42.207,-0.66,0.73,-0.63,1.17
42.218,-0.82,1.07,-0.47,1.43
42.227,-1.14,1.40,-0.34,1.84
42.238,-1.47,1.75,-0.22,2.30
42.248,-1.95,1.65,-0.04,2.56
42.258,-2.66,1.46,0.31,3.04
42.268,-3.60,1.44,0.64,3.93
42.278,-4.20,1.64,1.37,4.71
42.288,-4.07,1.82,2.29,5.01
42.298,-3.69,1.86,3.06,5.14
42.308,-3.78,1.85,3.60,5.54
42.318,-4.08,1.65,3.81,5.82
42.328,-4.12,1.51,3.82,5.82
42.339,-4.24,1.65,3.79,5.92
42.348,-4.57,1.83,3.79,6.21
42.359,-4.63,1.90,3.78,6.28
42.369,-4.32,2.12,3.66,6.05
42.379,-3.68,2.39,3.68,5.73
42.389,-3.09,2.62,3.88,5.61
42.399,-2.54,2.72,4.15,5.57
42.409,-2.12,2.55,4.57,5.65
42.419,-1.85,2.24,4.87,5.66
42.429,-1.86,1.84,4.90,5.55
42.439,-2.02,1.46,4.67,5.30
42.449,-2.28,1.25,4.18,4.92
42.459,-2.69,1.15,3.53,4.58
42.469,-3.20,1.02,2.99,4.50
42.480,-3.53,0.77,2.50,4.39
42.490,-3.64,0.42,2.14,4.25
42.500,-3.44,0.30,1.76,3.87
42.510,-2.64,0.55,1.23,2.96
42.520,-1.60,1.18,0.61,2.08
42.530,-0.35,2.11,-0.16,2.15
42.540,0.77,3.04,-0.68,3.21
42.550,1.37,3.64,-0.83,3.98
42.560,1.70,3.85,-1.21,4.38
42.570,1.93,3.65,-1.71,4.47
42.580,2.15,3.42,-2.14,4.58
42.590,2.27,3.26,-2.60,4.75
42.601,2.24,2.99,-2.98,4.78
42.610,2.08,2.75,-3.36,4.81
42.621,2.01,2.25,-3.51,4.63
42.631,1.79,1.52,-3.35,4.09
42.641,1.60,0.73,-2.97,3.45
42.651,1.31,-0.16,-2.58,2.90
42.661,0.85,-0.96,-2.26,2.60
42.671,0.39,-1.47,-2.06,2.57
42.681,0.07,-1.68,-1.81,2.47
42.691,-0.03,-1.69,-1.43,2.21
42.701,0.05,-1.59,-1.10,1.93
42.711,0.26,-1.45,-0.69,1.62
42.721,0.56,-1.40,-0.32,1.54
42.731,0.83,-1.40,-0.15,1.63
42.742,0.92,-1.44,0.06,1.71
42.752,1.04,-1.66,0.40,1.99
42.762,0.68,-2.04,0.82,2.30
42.772,0.22,-2.56,0.98,2.75
42.782,-0.20,-3.09,0.92,3.24
42.792,-0.52,-3.43,0.63,3.53
42.802,-0.78,-3.65,0.26,3.74
42.812,-0.85,-3.85,-0.03,3.95
42.822,-0.82,-3.71,-0.50,3.83
42.832,-0.76,-3.24,-1.20,3.54
42.842,-0.89,-2.88,-1.83,3.52
42.852,-1.06,-2.48,-2.33,3.56
42.863,-0.85,-2.05,-2.33,3.22
42.873,-0.28,-1.52,-1.89,2.44
