time,ax,ay,az,atotal
0.000,-0.01,-0.01,-0.04,0.05
0.010,0.00,-0.01,-0.04,0.04
0.020,-0.01,-0.02,-0.06,0.06
0.030,-0.01,-0.02,-0.06,0.06
0.040,-0.01,0.00,-0.05,0.05
0.050,-0.00,0.01,-0.04,0.04
0.061,-0.01,-0.02,-0.05,0.05
0.071,-0.01,-0.00,-0.04,0.04
0.081,-0.01,-0.02,-0.06,0.06
0.091,-0.01,-0.01,-0.04,0.04
0.101,-0.02,-0.01,-0.04,0.05
0.111,-0.01,0.01,-0.03,0.04
0.121,-0.00,-0.01,-0.04,0.04
0.131,-0.02,-0.00,-0.04,0.05
0.141,-0.00,0.00,-0.04,0.04
0.151,-0.02,-0.00,-0.06,0.06
0.161,-0.01,-0.00,-0.06,0.06
0.172,0.00,-0.02,-0.05,0.05
0.181,-0.01,-0.01,-0.05,0.05
0.192,-0.02,-0.03,-0.04,0.05
0.202,-0.01,-0.01,-0.05,0.05
0.212,-0.00,-0.00,-0.04,0.04
0.222,-0.01,-0.00,-0.03,0.03
0.232,-0.00,0.00,-0.05,0.05
0.242,-0.00,-0.01,-0.05,0.05
0.252,0.00,0.00,-0.04,0.04
0.262,-0.01,0.00,-0.05,0.05
0.272,-0.01,-0.00,-0.04,0.04
0.282,-0.01,-0.00,-0.05,0.05
0.293,-0.01,-0.01,-0.05,0.05
0.303,-0.00,0.00,-0.05,0.05
0.313,-0.00,-0.01,-0.06,0.06
0.323,-0.01,0.00,-0.05,0.06
0.333,0.00,-0.01,-0.05,0.05
0.343,-0.01,0.00,-0.04,0.04
0.353,-0.02,-0.00,-0.05,0.05
0.363,0.00,-0.01,-0.05,0.05
0.373,-0.00,-0.02,-0.05,0.05
0.383,0.01,-0.01,-0.04,0.04
0.393,0.01,-0.00,-0.05,0.05
0.403,-0.01,-0.01,-0.05,0.05
0.413,-0.00,-0.01,-0.04,0.05
0.423,-0.00,-0.01,-0.04,0.04
0.434,0.01,-0.00,-0.05,0.05
0.444,0.01,-0.01,-0.05,0.05
0.454,0.00,-0.01,-0.06,0.06
0.464,0.01,-0.01,-0.04,0.05
0.474,-0.01,-0.01,-0.04,0.04
0.484,-0.01,-0.02,-0.05,0.05
0.494,-0.01,-0.01,-0.05,0.05
0.504,-0.00,-0.01,-0.05,0.05
0.514,0.00,0.01,-0.05,0.05
0.524,0.00,-0.01,-0.04,0.05
0.534,-0.01,-0.01,-0.05,0.05
0.544,-0.02,-0.01,-0.04,0.04
0.555,-0.02,-0.01,-0.05,0.05
0.565,-0.00,-0.02,-0.04,0.05
0.575,0.00,-0.01,-0.06,0.06
0.585,0.01,-0.01,-0.04,0.04
0.595,-0.00,-0.01,-0.03,0.03
0.605,-0.01,-0.02,-0.05,0.06
0.615,-0.01,-0.02,-0.06,0.07
0.625,0.00,-0.01,-0.03,0.03
0.635,-0.01,-0.00,-0.05,0.05
0.645,-0.01,0.00,-0.05,0.05
0.655,-0.01,-0.00,-0.04,0.04
0.665,0.01,-0.01,-0.04,0.04
0.676,0.00,0.01,-0.06,0.06
0.686,0.01,-0.00,-0.06,0.06
0.696,-0.03,-0.01,-0.06,0.06
0.706,-0.01,-0.01,-0.05,0.05
0.716,-0.02,-0.01,-0.05,0.05
0.726,-0.01,0.00,-0.04,0.04
0.736,-0.01,-0.01,-0.05,0.05
0.746,-0.01,0.00,-0.04,0.04
0.756,-0.00,0.00,-0.03,0.03
0.766,-0.01,-0.00,-0.05,0.05
0.776,-0.01,-0.00,-0.04,0.04
0.786,-0.00,-0.00,-0.04,0.04
0.796,-0.00,-0.01,-0.05,0.05
0.807,-0.02,-0.01,-0.04,0.04
0.817,0.01,-0.02,-0.05,0.06
0.827,0.01,0.00,-0.04,0.04
0.837,-0.00,0.01,-0.03,0.03
0.847,-0.01,0.01,-0.04,0.05
0.857,-0.01,-0.00,-0.04,0.04
0.867,-0.01,0.00,-0.05,0.05
0.877,0.00,-0.01,-0.04,0.04
0.887,-0.00,-0.02,-0.04,0.05
0.897,-0.00,-0.01,-0.05,0.05
0.907,-0.02,0.00,-0.05,0.05
0.918,-0.02,-0.00,-0.04,0.05
0.928,-0.01,-0.01,-0.04,0.04
0.938,-0.01,-0.01,-0.04,0.04
0.948,0.01,-0.01,-0.05,0.05
0.958,0.01,-0.00,-0.04,0.04
0.968,0.01,-0.01,-0.04,0.04
0.978,0.01,-0.00,-0.06,0.06
0.988,-0.02,0.01,-0.05,0.05
0.998,-0.00,-0.00,-0.04,0.04
1.008,-0.01,0.00,-0.05,0.05
1.018,0.00,0.00,-0.05,0.06
1.028,-0.01,-0.01,-0.05,0.06
1.039,-0.00,0.00,-0.04,0.04
1.049,-0.01,-0.01,-0.05,0.05
1.059,-0.00,-0.01,-0.06,0.06
1.069,-0.00,0.01,-0.04,0.04
1.079,-0.00,-0.01,-0.04,0.04
1.089,-0.01,-0.01,-0.05,0.05
1.099,-0.00,-0.00,-0.03,0.03
1.109,-0.01,-0.02,-0.04,0.05
1.119,-0.01,-0.00,-0.04,0.04
1.129,-0.00,0.01,-0.04,0.05
1.139,0.00,0.01,-0.05,0.05
1.149,0.00,-0.01,-0.05,0.05
1.159,-0.01,0.00,-0.05,0.05
1.170,-0.01,-0.01,-0.04,0.04
1.180,-0.01,-0.01,-0.06,0.06
1.190,-0.01,-0.01,-0.05,0.05
1.200,-0.01,-0.01,-0.05,0.05
1.210,-0.01,-0.03,-0.04,0.05
1.220,0.00,-0.01,-0.05,0.05
1.230,0.00,0.00,-0.04,0.04
1.240,-0.00,-0.01,-0.03,0.04
1.250,0.00,-0.00,-0.05,0.05
1.260,-0.02,0.01,-0.04,0.04
1.270,-0.01,-0.01,-0.05,0.05
1.280,0.01,-0.00,-0.06,0.06
1.290,-0.00,-0.00,-0.04,0.04
1.301,0.01,-0.01,-0.04,0.04
1.311,-0.01,-0.00,-0.04,0.04
1.321,-0.01,-0.01,-0.04,0.04
1.331,0.01,-0.00,-0.05,0.05
1.341,-0.01,-0.00,-0.05,0.05
1.351,-0.00,0.00,-0.04,0.04
1.361,0.01,-0.01,-0.04,0.04
1.371,-0.01,-0.00,-0.04,0.04
1.381,-0.01,-0.01,-0.03,0.03
1.391,-0.01,0.00,-0.04,0.04
1.401,-0.01,0.00,-0.05,0.06
1.411,-0.00,-0.01,-0.04,0.04
1.422,0.01,-0.02,-0.05,0.05
1.432,-0.00,0.00,-0.05,0.05
1.442,-0.03,-0.00,-0.05,0.05
1.452,-0.00,-0.02,-0.05,0.05
1.462,-0.01,-0.00,-0.04,0.04
1.472,-0.01,-0.00,-0.05,0.05
1.482,-0.01,-0.01,-0.04,0.04
1.492,-0.01,-0.02,-0.05,0.05
1.502,-0.00,-0.00,-0.04,0.04
1.512,-0.00,0.00,-0.04,0.04
1.523,-0.01,-0.02,-0.03,0.04
1.532,-0.00,0.00,-0.05,0.05
1.543,-0.01,-0.01,-0.05,0.06
1.553,-0.01,0.01,-0.04,0.04
1.563,-0.01,-0.01,-0.05,0.06
1.573,0.01,-0.00,-0.05,0.05
1.583,-0.01,-0.01,-0.04,0.05
1.593,-0.00,-0.00,-0.05,0.05
1.603,0.01,-0.01,-0.05,0.05
1.613,-0.00,0.01,-0.05,0.05
1.623,-0.01,-0.02,-0.03,0.04
1.633,-0.01,-0.01,-0.04,0.04
1.643,-0.01,-0.01,-0.04,0.04
1.653,-0.01,-0.01,-0.05,0.05
1.664,0.00,0.00,-0.04,0.04
1.674,-0.01,-0.00,-0.05,0.05
1.684,-0.01,-0.00,-0.05,0.05
1.694,-0.01,-0.01,-0.03,0.04
1.704,-0.01,-0.00,-0.04,0.05
1.714,0.01,-0.00,-0.06,0.06
1.724,-0.00,-0.01,-0.05,0.05
1.734,-0.01,0.01,-0.06,0.06
1.744,-0.01,0.00,-0.05,0.05
1.754,-0.00,0.00,-0.05,0.05
1.764,-0.01,-0.01,-0.05,0.05
1.774,0.01,-0.01,-0.05,0.05
1.785,-0.02,0.00,-0.06,0.06
1.795,-0.01,-0.01,-0.04,0.04
1.805,-0.01,-0.01,-0.05,0.05
1.815,-0.00,-0.01,-0.04,0.04
1.825,-0.00,0.00,-0.04,0.04
1.835,-0.01,-0.01,-0.05,0.06
1.845,-0.01,-0.01,-0.04,0.05
1.855,-0.01,-0.01,-0.04,0.04
1.865,-0.01,-0.02,-0.04,0.05
1.875,-0.03,-0.01,-0.03,0.04
1.885,0.01,-0.00,-0.05,0.05
1.895,-0.00,-0.01,-0.05,0.05
1.906,-0.01,-0.00,-0.06,0.06
1.915,-0.00,0.00,-0.06,0.06
1.926,-0.01,-0.01,-0.06,0.06
1.936,-0.02,-0.01,-0.04,0.04
1.946,0.00,-0.02,-0.05,0.06
1.956,-0.00,0.01,-0.05,0.05
1.966,-0.00,-0.01,-0.05,0.05
1.976,-0.00,-0.01,-0.05,0.05
1.986,-0.00,-0.01,-0.04,0.04
1.996,-0.02,-0.01,-0.05,0.06
2.006,-0.02,0.01,-0.05,0.06
2.016,0.01,0.01,-0.04,0.05
2.026,0.00,-0.00,-0.05,0.05
2.037,0.00,-0.00,-0.04,0.04
2.047,-0.01,0.00,-0.05,0.05
2.057,-0.01,0.00,-0.05,0.05
2.067,-0.01,0.01,-0.05,0.06
2.077,-0.01,-0.01,-0.04,0.04
2.087,-0.01,-0.01,-0.03,0.04
2.097,-0.01,-0.01,-0.04,0.05
2.107,-0.01,0.01,-0.04,0.04
2.117,-0.00,0.00,-0.05,0.05
2.127,-0.01,-0.01,-0.05,0.05
2.137,-0.00,0.00,-0.06,0.06
2.148,-0.00,-0.01,-0.06,0.06
2.158,-0.00,-0.02,-0.04,0.05
2.168,-0.00,-0.01,-0.04,0.04
2.178,0.01,-0.00,-0.04,0.04
2.188,-0.00,-0.00,-0.04,0.04
2.198,-0.00,-0.02,-0.06,0.06
2.208,0.01,-0.01,-0.07,0.07
2.218,0.01,0.00,-0.05,0.05
2.228,-0.00,0.01,-0.03,0.03
2.238,-0.00,0.00,-0.04,0.04
2.248,-0.02,-0.01,-0.04,0.05
2.258,0.00,-0.01,-0.04,0.04
2.269,-0.00,-0.02,-0.04,0.04
2.279,0.00,-0.02,-0.04,0.04
2.289,0.01,-0.01,-0.05,0.05
2.298,-0.01,0.00,-0.04,0.04
2.309,-0.02,0.01,-0.04,0.05
2.319,-0.01,-0.01,-0.05,0.05
2.329,-0.01,-0.01,-0.05,0.05
2.339,0.01,0.00,-0.05,0.05
2.349,-0.01,0.00,-0.03,0.03
2.359,0.01,-0.02,-0.04,0.04
2.369,0.01,-0.01,-0.04,0.04
2.379,-0.01,0.00,-0.04,0.04
2.389,-0.00,-0.01,-0.03,0.04
2.399,-0.01,-0.01,-0.06,0.06
2.410,-0.00,0.00,-0.04,0.04
2.420,-0.01,-0.02,-0.05,0.05
2.430,0.01,-0.01,-0.04,0.04
2.440,0.00,-0.01,-0.05,0.05
2.450,-0.01,-0.01,-0.04,0.04
2.460,0.00,-0.01,-0.04,0.04
2.470,-0.00,-0.01,-0.04,0.04
2.480,0.01,-0.01,-0.05,0.05
2.490,0.00,0.00,-0.04,0.04
2.500,-0.00,0.00,-0.04,0.04
2.511,-0.01,-0.01,-0.05,0.05
2.520,-0.00,0.00,-0.05,0.05
2.531,-0.01,0.01,-0.05,0.05
2.541,0.01,0.00,-0.06,0.06
2.551,-0.01,0.00,-0.05,0.05
2.561,-0.00,-0.01,-0.04,0.04
2.571,0.00,-0.01,-0.03,0.04
2.581,0.00,0.00,-0.04,0.04
2.591,-0.01,-0.02,-0.04,0.05
2.601,-0.01,-0.02,-0.03,0.04
2.611,0.00,-0.02,-0.05,0.06
2.621,0.01,0.00,-0.05,0.06
2.631,-0.01,0.01,-0.05,0.05
2.641,0.00,-0.01,-0.03,0.03
2.652,0.00,-0.02,-0.05,0.05
2.662,-0.01,-0.00,-0.04,0.04
2.672,-0.02,0.00,-0.05,0.05
2.682,-0.01,0.00,-0.05,0.05
2.692,-0.01,-0.00,-0.05,0.05
2.702,-0.00,-0.00,-0.05,0.05
2.712,-0.02,-0.00,-0.04,0.04
2.722,-0.02,-0.01,-0.05,0.06
2.732,-0.01,-0.01,-0.05,0.06
2.742,-0.01,-0.02,-0.05,0.05
2.752,-0.00,-0.00,-0.03,0.03
2.762,-0.00,-0.01,-0.04,0.04
2.773,-0.02,-0.00,-0.04,0.05
2.783,-0.01,0.00,-0.05,0.06
2.793,-0.00,0.00,-0.05,0.05
2.803,-0.01,-0.01,-0.03,0.04
2.813,-0.02,0.01,-0.03,0.04
2.823,-0.01,0.00,-0.04,0.04
2.833,-0.01,-0.01,-0.03,0.04
2.843,-0.02,-0.01,-0.04,0.05
2.853,0.01,-0.01,-0.06,0.06
2.863,0.00,0.00,-0.06,0.06
2.873,0.00,-0.01,-0.04,0.04
2.883,-0.02,0.00,-0.05,0.05
2.894,-0.01,-0.01,-0.05,0.05
2.903,-0.01,-0.02,-0.06,0.07
2.914,-0.00,-0.00,-0.06,0.06
2.924,-0.00,-0.02,-0.04,0.05
2.934,0.01,-0.01,-0.03,0.04
2.944,0.01,0.01,-0.05,0.05
2.954,-0.01,-0.01,-0.04,0.04
2.964,-0.01,-0.01,-0.05,0.05
2.974,0.00,-0.00,-0.05,0.05
2.984,0.01,-0.01,-0.04,0.04
2.994,-0.01,0.00,-0.05,0.05
3.004,-0.02,-0.02,-0.06,0.06
3.015,-0.01,-0.01,-0.03,0.04
3.024,-0.01,0.00,-0.03,0.03
3.035,0.01,-0.01,-0.04,0.04
3.045,-0.01,-0.01,-0.03,0.03
3.055,-0.01,0.00,-0.05,0.05
3.065,-0.01,-0.01,-0.04,0.04
3.075,-0.01,0.00,-0.06,0.06
3.085,-0.00,-0.01,-0.05,0.06
3.095,-0.01,0.00,-0.04,0.04
3.105,-0.01,-0.01,-0.05,0.05
3.115,-0.00,0.01,-0.05,0.05
3.125,-0.02,-0.01,-0.05,0.05
3.136,-0.01,-0.02,-0.06,0.06
3.145,-0.01,-0.00,-0.04,0.04
3.156,-0.02,-0.01,-0.05,0.05
3.166,-0.01,-0.01,-0.04,0.04
3.176,-0.00,-0.00,-0.04,0.04
3.186,0.00,-0.00,-0.04,0.04
3.196,-0.01,-0.00,-0.04,0.04
3.206,0.01,-0.01,-0.05,0.05
3.216,-0.00,0.00,-0.07,0.07
3.226,-0.01,0.00,-0.04,0.04
3.236,-0.01,-0.00,-0.04,0.04
3.246,-0.01,-0.01,-0.05,0.05
3.257,-0.02,-0.00,-0.05,0.05
3.266,-0.01,-0.02,-0.04,0.05
3.276,-0.00,0.00,-0.06,0.06
3.287,0.00,-0.01,-0.05,0.05
3.297,0.01,-0.01,-0.05,0.06
3.307,0.00,-0.01,-0.05,0.06
3.317,0.00,0.01,-0.04,0.04
3.327,0.00,0.00,-0.05,0.05
3.337,-0.02,-0.02,-0.04,0.05
3.347,-0.00,-0.01,-0.04,0.04
3.357,-0.00,0.00,-0.05,0.05
3.367,-0.00,-0.02,-0.06,0.06
3.377,-0.00,-0.00,-0.05,0.05
3.388,0.00,-0.01,-0.05,0.05
3.398,0.00,0.01,-0.05,0.05
3.408,-0.01,-0.00,-0.05,0.05
3.418,-0.01,0.00,-0.05,0.05
3.428,-0.02,-0.01,-0.03,0.04
3.438,-0.02,0.00,-0.05,0.05
3.448,-0.01,0.00,-0.04,0.05
3.458,0.00,-0.00,-0.04,0.04
3.468,0.01,-0.00,-0.07,0.07
3.478,-0.01,-0.01,-0.05,0.05
3.488,-0.00,-0.01,-0.04,0.04
3.498,-0.01,0.00,-0.05,0.06
3.508,-0.01,-0.00,-0.05,0.05
3.519,0.01,-0.00,-0.04,0.04
3.529,0.01,-0.01,-0.05,0.05
3.539,0.00,-0.01,-0.04,0.04
3.549,0.00,-0.01,-0.05,0.05
3.559,-0.01,-0.00,-0.04,0.04
3.569,0.00,0.00,-0.03,0.03
3.579,0.00,-0.01,-0.05,0.05
3.589,-0.02,-0.01,-0.04,0.05
3.599,-0.01,0.00,-0.05,0.05
3.609,0.01,-0.00,-0.05,0.05
3.619,-0.01,0.00,-0.04,0.04
3.629,-0.01,-0.01,-0.04,0.04
3.640,-0.01,-0.00,-0.05,0.05
3.650,-0.01,-0.01,-0.05,0.05
3.660,-0.01,-0.02,-0.05,0.05
3.670,-0.02,-0.00,-0.04,0.05
3.680,-0.01,-0.01,-0.04,0.04
3.690,0.00,-0.00,-0.06,0.06
3.700,-0.01,0.00,-0.05,0.05
3.710,-0.00,-0.01,-0.03,0.04
3.720,0.01,-0.01,-0.05,0.05
3.730,0.00,-0.01,-0.04,0.04
3.741,-0.01,0.00,-0.04,0.04
3.750,-0.01,0.01,-0.04,0.05
3.761,-0.00,-0.00,-0.05,0.05
3.771,0.00,-0.02,-0.05,0.06
3.781,0.01,0.00,-0.04,0.04
3.791,0.00,0.00,-0.04,0.04
3.801,-0.01,-0.00,-0.06,0.06
3.811,-0.00,-0.02,-0.04,0.04
3.821,-0.00,0.00,-0.04,0.04
3.831,-0.01,-0.01,-0.05,0.05
3.841,0.00,-0.01,-0.04,0.04
3.851,-0.01,-0.02,-0.04,0.04
3.861,-0.01,-0.01,-0.05,0.05
3.871,-0.00,-0.00,-0.05,0.05
3.882,0.01,-0.01,-0.05,0.05
3.891,0.01,0.00,-0.06,0.06
3.902,0.01,-0.00,-0.03,0.03
3.912,-0.00,0.01,-0.05,0.05
3.922,-0.00,-0.01,-0.06,0.06
3.932,0.01,-0.00,-0.05,0.05
3.942,-0.01,-0.01,-0.04,0.04
3.952,-0.02,-0.01,-0.04,0.04
3.962,-0.01,-0.01,-0.05,0.05
3.972,-0.00,-0.00,-0.05,0.05
3.982,0.00,-0.00,-0.05,0.05
3.992,0.00,0.01,-0.05,0.05
4.003,-0.01,-0.00,-0.06,0.06
4.012,-0.00,-0.01,-0.05,0.06
4.023,-0.01,-0.01,-0.05,0.05
4.033,0.00,-0.01,-0.05,0.05
4.043,-0.00,-0.01,-0.07,0.07
4.053,-0.01,-0.00,-0.04,0.05
4.063,-0.01,-0.00,-0.03,0.04
4.073,-0.02,-0.00,-0.04,0.05
4.083,-0.01,-0.01,-0.04,0.05
4.093,-0.00,-0.01,-0.04,0.04
4.103,-0.01,0.00,-0.05,0.05
4.113,0.02,0.01,-0.07,0.07
4.124,-0.01,-0.01,-0.05,0.05
4.133,-0.01,-0.01,-0.06,0.06
4.144,0.01,-0.00,-0.06,0.06
4.154,-0.02,0.00,-0.05,0.06
4.164,-0.00,-0.01,-0.05,0.05
4.174,0.01,-0.01,-0.06,0.06
4.184,0.01,-0.01,-0.03,0.04
4.194,-0.00,0.01,-0.04,0.04
4.204,-0.00,0.01,-0.05,0.05
4.214,-0.01,0.00,-0.04,0.05
4.224,-0.01,-0.01,-0.03,0.03
4.234,-0.01,0.01,-0.04,0.05
4.244,-0.00,-0.00,-0.05,0.05
4.254,-0.00,-0.02,-0.06,0.06
4.265,-0.01,0.00,-0.04,0.04
4.275,-0.00,-0.00,-0.05,0.05
4.285,0.00,0.01,-0.06,0.06
4.295,0.00,0.00,-0.06,0.06
4.305,0.01,0.00,-0.05,0.05
4.315,0.00,-0.01,-0.04,0.04
4.325,-0.00,-0.00,-0.05,0.05
4.335,-0.01,0.00,-0.05,0.05
4.345,-0.00,0.00,-0.04,0.04
4.355,-0.01,-0.01,-0.05,0.05
4.365,0.01,-0.01,-0.05,0.06
4.376,-0.01,0.00,-0.06,0.06
4.386,-0.00,-0.00,-0.04,0.04
4.396,-0.01,-0.01,-0.06,0.06
4.406,-0.01,-0.01,-0.04,0.04
4.416,0.01,-0.00,-0.05,0.05
4.426,0.01,-0.00,-0.04,0.04
4.436,-0.01,-0.00,-0.04,0.04
4.446,-0.00,-0.01,-0.03,0.04
4.456,-0.01,-0.02,-0.05,0.05
4.466,0.01,0.00,-0.05,0.05
4.476,-0.00,0.00,-0.06,0.06
4.486,0.01,-0.01,-0.05,0.05
4.496,-0.00,-0.00,-0.05,0.05
4.507,-0.00,0.00,-0.05,0.05
4.517,-0.01,0.00,-0.04,0.04
4.527,0.01,-0.00,-0.05,0.05
4.537,0.01,-0.00,-0.05,0.05
4.547,-0.01,-0.00,-0.06,0.06
4.557,-0.01,-0.01,-0.05,0.06
4.567,0.00,-0.01,-0.05,0.05
4.577,0.00,-0.00,-0.05,0.05
4.587,-0.01,-0.00,-0.05,0.05
4.597,-0.00,-0.01,-0.04,0.05
4.607,0.00,-0.01,-0.04,0.04
4.618,-0.00,-0.01,-0.04,0.05
4.628,-0.01,0.00,-0.05,0.05
4.638,-0.01,-0.01,-0.05,0.06
4.648,-0.00,0.01,-0.04,0.04
4.658,-0.01,-0.01,-0.04,0.05
4.668,0.00,0.00,-0.04,0.04
4.678,-0.01,0.00,-0.05,0.05
4.688,-0.01,0.00,-0.04,0.04
4.698,-0.00,0.00,-0.04,0.04
4.708,0.00,0.01,-0.03,0.03
4.718,-0.00,0.01,-0.05,0.05
4.728,-0.02,-0.01,-0.05,0.05
4.738,-0.01,-0.00,-0.04,0.04
4.748,0.00,0.01,-0.04,0.04
4.759,-0.01,0.00,-0.05,0.05
4.769,0.00,-0.00,-0.06,0.06
4.779,-0.00,0.00,-0.06,0.06
4.789,-0.01,-0.01,-0.03,0.03
4.799,-0.01,0.00,-0.05,0.05
4.809,0.01,-0.00,-0.05,0.05
4.819,0.02,-0.00,-0.04,0.04
4.829,0.00,0.00,-0.04,0.04
4.839,-0.00,-0.00,-0.05,0.05
4.849,0.02,0.00,-0.06,0.06
4.859,-0.00,-0.01,-0.04,0.04
4.870,-0.02,-0.01,-0.03,0.04
4.879,-0.01,-0.01,-0.05,0.05
4.890,-0.03,0.01,-0.04,0.05
4.900,0.00,-0.01,-0.04,0.04
4.910,0.01,0.01,-0.04,0.04
4.920,-0.00,-0.01,-0.05,0.05
4.930,-0.02,-0.01,-0.05,0.06
4.940,-0.00,-0.01,-0.06,0.06
4.950,0.00,-0.01,-0.04,0.04
4.960,-0.01,-0.01,-0.03,0.04
4.970,-0.00,-0.01,-0.03,0.04
4.980,0.00,0.01,-0.05,0.05
4.991,-0.01,0.00,-0.05,0.05
5.001,-0.00,-0.01,-0.05,0.05
5.011,-0.01,-0.00,-0.04,0.05
5.021,0.00,-0.02,-0.06,0.06
5.031,0.00,-0.01,-0.06,0.06
5.041,0.01,0.02,-0.05,0.06
5.051,0.00,-0.00,-0.04,0.04
5.061,-0.01,0.00,-0.04,0.04
5.071,-0.01,-0.00,-0.06,0.06
5.081,0.02,0.00,-0.04,0.05
5.091,0.01,-0.01,-0.06,0.06
5.101,0.00,-0.00,-0.04,0.05
5.111,0.01,-0.00,-0.04,0.04
5.122,-0.00,0.00,-0.04,0.04
5.132,0.00,0.01,-0.04,0.04
5.142,0.01,-0.00,-0.04,0.04
5.152,0.01,0.01,-0.05,0.06
5.162,0.00,-0.00,-0.06,0.06
5.172,-0.01,-0.00,-0.05,0.05
5.182,-0.00,0.01,-0.05,0.05
5.192,0.00,-0.00,-0.05,0.05
5.202,-0.01,0.00,-0.05,0.05
5.212,-0.02,-0.02,-0.06,0.06
5.222,-0.01,-0.01,-0.05,0.05
5.232,-0.01,0.00,-0.05,0.05
5.242,0.01,-0.02,-0.05,0.05
5.253,0.00,-0.01,-0.04,0.04
5.263,-0.01,-0.00,-0.04,0.04
5.273,0.00,0.00,-0.04,0.04
5.283,-0.02,-0.00,-0.04,0.04
5.293,0.00,-0.00,-0.05,0.05
5.303,-0.01,-0.01,-0.04,0.04
5.313,0.00,0.00,-0.05,0.05
5.323,-0.00,0.01,-0.04,0.04
5.333,0.00,-0.01,-0.05,0.05
5.343,-0.01,0.00,-0.06,0.06
5.353,-0.00,-0.01,-0.05,0.05
5.364,-0.00,0.00,-0.04,0.04
5.374,-0.01,-0.01,-0.05,0.05
5.384,0.00,-0.02,-0.04,0.04
5.394,0.02,0.01,-0.05,0.05
5.404,0.00,-0.00,-0.05,0.05
5.414,-0.00,-0.01,-0.04,0.04
5.424,0.00,-0.01,-0.05,0.05
5.434,-0.01,-0.01,-0.06,0.06
5.444,0.01,-0.01,-0.04,0.05
5.454,0.00,-0.00,-0.04,0.04
5.464,0.02,-0.00,-0.07,0.07
5.474,0.00,0.00,-0.06,0.06
5.484,0.02,-0.00,-0.05,0.06
5.495,0.01,-0.01,-0.04,0.04
5.505,-0.01,0.00,-0.06,0.06
5.515,-0.00,-0.01,-0.05,0.06
5.525,0.01,0.00,-0.06,0.06
5.535,0.01,-0.01,-0.05,0.05
5.545,0.00,0.01,-0.05,0.05
5.555,0.01,-0.00,-0.04,0.04
5.565,-0.01,-0.00,-0.03,0.04
5.575,-0.01,-0.01,-0.04,0.04
5.585,-0.00,-0.01,-0.05,0.05
5.595,0.00,-0.00,-0.05,0.05
5.606,-0.01,0.00,-0.04,0.05
5.616,0.01,-0.00,-0.05,0.05
5.626,0.01,-0.01,-0.06,0.06
5.636,-0.00,0.00,-0.06,0.06
5.646,0.00,-0.00,-0.04,0.04
5.656,0.01,-0.00,-0.04,0.04
5.666,-0.01,0.00,-0.04,0.04
5.676,0.00,0.01,-0.05,0.05
5.686,-0.02,-0.01,-0.03,0.04
5.696,-0.00,-0.01,-0.06,0.06
5.706,-0.01,0.01,-0.07,0.07
5.716,-0.01,-0.00,-0.05,0.05
5.727,-0.00,-0.01,-0.04,0.04
5.737,-0.01,-0.01,-0.05,0.05
5.747,0.01,0.01,-0.05,0.05
5.757,-0.00,0.01,-0.04,0.04
5.767,-0.01,-0.01,-0.05,0.05
5.777,-0.00,-0.01,-0.06,0.06
5.787,-0.01,0.01,-0.05,0.05
5.797,-0.01,0.00,-0.04,0.04
5.807,0.01,-0.01,-0.05,0.05
5.817,0.00,-0.00,-0.04,0.04
5.827,-0.00,0.01,-0.05,0.05
5.838,0.01,-0.01,-0.06,0.06
5.847,-0.01,-0.01,-0.04,0.04
5.858,-0.01,0.00,-0.04,0.04
5.868,0.01,-0.00,-0.05,0.05
5.878,0.00,-0.00,-0.04,0.04
5.888,-0.00,0.02,-0.06,0.06
5.898,-0.00,-0.00,-0.03,0.03
5.908,-0.01,-0.01,-0.05,0.05
5.918,-0.01,-0.00,-0.05,0.05
5.928,0.01,-0.01,-0.06,0.06
5.938,-0.00,0.00,-0.06,0.06
5.948,0.01,0.00,-0.05,0.05
5.959,-0.00,-0.01,-0.06,0.06
5.968,-0.01,0.00,-0.06,0.06
5.978,0.01,0.01,-0.05,0.05
5.988,-0.01,-0.00,-0.03,0.04
5.999,-0.01,-0.01,-0.05,0.05
6.009,-0.01,0.00,-0.05,0.05
6.019,0.00,0.01,-0.03,0.03
6.029,0.00,-0.01,-0.05,0.05
6.039,0.01,0.00,-0.05,0.05
6.049,-0.01,-0.00,-0.04,0.04
6.059,-0.00,0.00,-0.04,0.04
6.069,0.01,-0.00,-0.04,0.04
6.079,0.00,0.00,-0.03,0.03
6.089,0.01,0.02,-0.05,0.05
6.100,-0.00,-0.01,-0.05,0.05
6.110,0.00,0.01,-0.04,0.05
6.120,-0.01,0.00,-0.03,0.04
6.130,-0.00,-0.00,-0.05,0.05
6.140,0.00,-0.01,-0.06,0.06
6.150,-0.01,0.01,-0.05,0.05
6.160,-0.00,0.00,-0.04,0.04
6.170,-0.02,-0.01,-0.04,0.05
6.180,-0.01,-0.01,-0.06,0.06
6.190,0.01,-0.03,-0.04,0.05
6.200,0.01,0.01,-0.03,0.04
6.210,0.02,0.02,-0.04,0.05
6.221,-0.01,-0.01,-0.06,0.06
6.231,-0.00,-0.00,-0.05,0.05
6.241,-0.00,0.02,-0.05,0.05
6.251,-0.01,-0.01,-0.05,0.05
6.261,0.00,-0.01,-0.04,0.04
6.271,0.00,-0.02,-0.05,0.05
6.281,-0.00,-0.01,-0.05,0.05
6.291,-0.01,-0.00,-0.05,0.05
6.301,-0.02,0.00,-0.05,0.06
6.311,-0.01,-0.01,-0.04,0.04
6.321,0.01,0.00,-0.04,0.04
6.331,0.01,0.01,-0.06,0.06
6.341,0.01,-0.00,-0.04,0.04
6.351,0.00,-0.01,-0.04,0.04
6.362,0.01,-0.01,-0.05,0.05
6.372,-0.00,-0.01,-0.05,0.06
6.382,-0.01,-0.02,-0.04,0.05
6.392,0.01,0.00,-0.06,0.06
6.402,-0.01,-0.00,-0.04,0.04
6.412,-0.00,-0.01,-0.04,0.04
6.422,0.00,-0.00,-0.04,0.04
6.432,-0.01,0.01,-0.04,0.04
6.442,-0.01,0.00,-0.03,0.03
6.452,0.01,0.01,-0.05,0.06
6.462,0.01,-0.01,-0.05,0.05
6.472,0.01,-0.01,-0.04,0.05
6.482,0.00,-0.00,-0.04,0.04
6.493,-0.00,-0.00,-0.05,0.05
6.503,-0.00,-0.01,-0.03,0.03
6.513,-0.01,0.00,-0.05,0.05
6.523,-0.01,0.00,-0.05,0.05
6.533,0.00,0.00,-0.05,0.05
6.543,-0.00,-0.01,-0.05,0.05
6.553,-0.01,-0.02,-0.05,0.05
6.563,0.01,-0.00,-0.04,0.05
6.573,0.01,-0.00,-0.05,0.05
6.583,0.01,-0.02,-0.03,0.04
6.593,0.01,0.00,-0.04,0.05
6.604,-0.01,0.00,-0.05,0.05
6.614,0.01,0.00,-0.07,0.07
6.624,0.00,-0.00,-0.04,0.04
6.634,-0.01,0.00,-0.05,0.05
6.644,-0.01,-0.01,-0.04,0.04
6.654,0.00,0.01,-0.04,0.04
6.664,0.00,0.00,-0.03,0.03
6.674,0.01,0.01,-0.04,0.04
6.684,0.00,-0.02,-0.06,0.06
6.694,-0.01,-0.01,-0.05,0.05
6.704,-0.00,-0.02,-0.03,0.03
6.714,-0.00,0.00,-0.05,0.05
6.725,-0.00,0.00,-0.03,0.03
6.735,0.01,-0.00,-0.05,0.05
6.745,-0.01,-0.00,-0.05,0.05
6.755,0.01,-0.02,-0.05,0.05
6.765,0.01,-0.00,-0.05,0.05
6.775,0.00,-0.01,-0.04,0.04
6.785,0.00,-0.01,-0.04,0.04
6.795,-0.01,-0.01,-0.05,0.05
6.805,-0.01,-0.00,-0.04,0.04
6.815,0.00,-0.00,-0.05,0.05
6.825,-0.02,-0.00,-0.04,0.05
6.835,0.00,0.00,-0.07,0.07
6.846,0.01,-0.01,-0.04,0.04
6.856,-0.00,-0.01,-0.05,0.05
6.866,0.01,0.00,-0.04,0.04
6.876,-0.01,-0.00,-0.05,0.05
6.886,-0.01,-0.00,-0.06,0.06
6.896,-0.02,-0.02,-0.04,0.05
6.906,-0.02,-0.01,-0.03,0.04
6.916,0.00,-0.01,-0.04,0.04
6.926,0.02,-0.01,-0.02,0.03
6.936,0.00,0.00,-0.05,0.05
6.946,0.00,0.00,-0.05,0.05
6.956,0.00,-0.01,-0.06,0.06
6.967,0.00,0.01,-0.06,0.06
6.977,-0.01,0.00,-0.05,0.05
6.987,0.01,-0.01,-0.05,0.05
6.997,-0.00,-0.02,-0.05,0.05
7.007,0.01,-0.02,-0.04,0.05
7.017,-0.00,0.00,-0.04,0.04
7.027,-0.01,-0.01,-0.04,0.04
7.037,0.00,-0.01,-0.05,0.05
7.047,0.00,-0.01,-0.05,0.05
7.057,-0.00,-0.01,-0.04,0.04
7.067,-0.00,0.00,-0.05,0.05
7.077,-0.01,-0.01,-0.05,0.05
7.088,0.00,-0.01,-0.04,0.04
7.097,0.01,0.00,-0.05,0.05
7.108,0.00,-0.01,-0.04,0.05
7.118,-0.02,-0.01,-0.04,0.05
7.128,0.00,0.00,-0.05,0.05
7.138,0.00,-0.00,-0.06,0.06
7.148,-0.01,-0.01,-0.04,0.04
7.158,-0.00,0.01,-0.07,0.07
7.168,0.01,-0.02,-0.06,0.06
7.178,-0.02,-0.02,-0.04,0.04
7.188,-0.02,0.01,-0.05,0.05
7.198,0.02,0.00,-0.04,0.05
7.208,-0.00,-0.00,-0.04,0.04
7.219,-0.02,0.00,-0.05,0.05
7.229,-0.00,-0.01,-0.05,0.05
7.239,-0.01,0.00,-0.04,0.05
7.249,0.00,-0.01,-0.04,0.04
7.259,0.00,-0.00,-0.04,0.04
7.269,-0.02,-0.01,-0.05,0.05
7.279,-0.02,0.00,-0.05,0.05
7.289,-0.00,0.02,-0.03,0.04
7.299,0.01,-0.01,-0.04,0.04
7.309,0.01,0.01,-0.04,0.04
7.319,-0.01,-0.01,-0.04,0.04
7.330,-0.00,-0.01,-0.05,0.05
7.339,0.00,-0.00,-0.05,0.05
7.350,-0.00,0.01,-0.04,0.04
7.360,0.00,0.01,-0.05,0.05
7.370,0.01,0.01,-0.05,0.05
7.380,0.01,0.00,-0.06,0.06
7.390,-0.00,-0.00,-0.05,0.05
7.400,-0.00,-0.00,-0.05,0.05
7.410,0.00,-0.00,-0.05,0.05
7.420,0.01,-0.01,-0.05,0.06
7.430,0.01,-0.00,-0.06,0.06
7.440,-0.00,0.00,-0.04,0.04
7.451,-0.01,-0.01,-0.04,0.04
7.461,0.01,0.00,-0.05,0.05
7.471,0.02,-0.01,-0.04,0.04
7.481,0.01,-0.00,-0.04,0.04
7.491,0.01,0.00,-0.05,0.05
7.501,-0.01,-0.01,-0.05,0.05
7.511,-0.00,0.01,-0.04,0.04
7.521,0.01,-0.00,-0.04,0.04
7.531,-0.00,-0.02,-0.06,0.06
7.541,-0.01,0.00,-0.04,0.04
7.551,-0.00,-0.00,-0.04,0.04
7.561,-0.00,0.00,-0.06,0.06
7.571,-0.00,0.00,-0.04,0.04
7.581,-0.01,-0.01,-0.05,0.05
7.592,-0.02,-0.00,-0.05,0.05
7.602,-0.01,-0.01,-0.03,0.04
7.612,-0.00,0.00,-0.05,0.05
7.622,-0.00,0.00,-0.06,0.06
7.632,-0.01,-0.01,-0.05,0.05
7.642,0.01,0.01,-0.04,0.04
7.652,0.01,0.00,-0.04,0.04
7.662,-0.01,-0.01,-0.05,0.05
7.672,0.00,-0.01,-0.04,0.05
7.682,0.00,0.00,-0.05,0.05
7.692,0.01,-0.01,-0.06,0.06
7.702,-0.01,-0.02,-0.04,0.04
7.713,0.00,0.01,-0.06,0.06
7.723,0.01,0.01,-0.03,0.03
7.733,0.00,-0.00,-0.05,0.05
7.743,-0.02,-0.02,-0.05,0.05
7.753,-0.01,-0.00,-0.05,0.05
7.763,-0.00,-0.01,-0.04,0.04
7.773,0.01,-0.01,-0.05,0.05
7.783,0.01,0.01,-0.03,0.03
7.793,-0.01,0.01,-0.06,0.06
7.803,-0.02,-0.00,-0.05,0.05
7.813,-0.01,-0.01,-0.04,0.05
7.823,-0.01,-0.00,-0.06,0.06
7.834,-0.02,0.00,-0.05,0.05
7.844,0.00,-0.01,-0.04,0.05
7.854,0.01,-0.00,-0.06,0.06
7.864,0.00,-0.01,-0.07,0.07
7.874,0.01,-0.01,-0.04,0.05
7.884,0.00,-0.01,-0.05,0.05
7.894,-0.00,0.00,-0.04,0.04
7.904,-0.00,-0.00,-0.05,0.05
7.914,-0.01,-0.01,-0.04,0.04
7.924,0.01,-0.00,-0.04,0.04
7.934,0.01,-0.01,-0.04,0.04
7.945,0.01,0.01,-0.04,0.05
7.955,-0.00,0.00,-0.04,0.04
7.965,0.00,-0.00,-0.05,0.05
7.975,-0.00,0.00,-0.05,0.05
7.985,-0.00,0.00,-0.05,0.05
7.995,-0.01,-0.00,-0.03,0.04
8.005,-0.00,0.01,-0.05,0.05
8.015,0.02,0.02,-0.05,0.05
8.025,0.01,-0.01,-0.04,0.04
8.035,0.01,-0.01,-0.05,0.05
8.045,-0.00,-0.00,-0.04,0.04
8.055,-0.00,-0.01,-0.04,0.05
8.065,0.02,-0.00,-0.06,0.07
8.076,-0.01,0.00,-0.04,0.04
8.086,0.01,-0.00,-0.05,0.05
8.096,0.01,-0.00,-0.04,0.04
8.106,-0.01,0.01,-0.03,0.03
8.116,-0.00,0.01,-0.04,0.04
8.126,0.00,0.00,-0.06,0.06
8.136,0.00,-0.01,-0.04,0.04
8.146,0.00,-0.01,-0.04,0.04
8.156,0.01,0.01,-0.05,0.05
8.166,-0.00,-0.01,-0.04,0.04
8.176,-0.00,-0.00,-0.06,0.06
8.186,0.02,-0.00,-0.06,0.06
8.197,-0.00,-0.00,-0.05,0.05
8.207,0.00,-0.00,-0.06,0.06
8.217,0.01,-0.00,-0.05,0.05
8.227,-0.02,0.00,-0.04,0.05
8.237,-0.01,0.01,-0.03,0.03
8.247,-0.00,-0.00,-0.05,0.05
8.257,-0.01,0.01,-0.05,0.05
8.267,-0.00,0.01,-0.04,0.04
8.277,-0.01,-0.00,-0.05,0.05
8.287,-0.01,0.00,-0.04,0.04
8.297,-0.00,-0.00,-0.05,0.05
8.307,-0.01,0.01,-0.04,0.05
8.318,0.01,0.01,-0.05,0.05
8.327,-0.00,-0.01,-0.04,0.04
8.338,0.01,0.00,-0.07,0.07
8.348,0.01,-0.00,-0.04,0.04
8.358,-0.01,-0.01,-0.04,0.05
8.368,0.00,0.01,-0.04,0.04
8.378,-0.00,-0.00,-0.04,0.04
8.388,-0.01,-0.01,-0.06,0.07
8.398,0.01,0.01,-0.04,0.05
8.408,0.00,0.00,-0.04,0.04
8.419,0.01,0.00,-0.05,0.05
8.428,0.01,0.01,-0.04,0.04
8.438,0.00,-0.01,-0.04,0.04
8.449,0.00,-0.01,-0.04,0.04
8.459,0.01,-0.00,-0.04,0.04
8.469,0.00,-0.01,-0.04,0.04
8.479,0.01,-0.01,-0.06,0.06
8.489,0.01,-0.01,-0.05,0.05
8.499,-0.01,0.01,-0.05,0.05
8.509,-0.02,-0.00,-0.04,0.05
8.519,-0.01,0.00,-0.05,0.05
8.529,-0.01,0.01,-0.05,0.06
8.539,-0.00,-0.00,-0.05,0.05
8.549,-0.00,-0.01,-0.05,0.05
8.559,0.00,0.00,-0.04,0.04
8.569,-0.00,-0.01,-0.04,0.04
8.580,-0.00,-0.00,-0.05,0.05
8.590,0.00,-0.00,-0.04,0.04
8.600,-0.01,-0.00,-0.04,0.04
8.610,-0.00,-0.00,-0.03,0.03
8.620,-0.01,-0.00,-0.04,0.04
8.630,-0.00,-0.02,-0.06,0.06
8.640,0.00,-0.00,-0.06,0.06
8.650,-0.01,-0.02,-0.06,0.06
8.660,0.00,-0.01,-0.04,0.04
8.670,-0.01,0.00,-0.05,0.05
8.680,-0.00,-0.01,-0.05,0.05
8.691,-0.01,-0.00,-0.04,0.04
8.701,-0.01,0.01,-0.05,0.05
8.711,-0.02,-0.00,-0.04,0.04
8.721,0.00,0.01,-0.06,0.06
8.731,-0.01,-0.01,-0.03,0.03
8.741,0.00,-0.00,-0.04,0.04
8.751,-0.01,-0.01,-0.04,0.04
8.761,0.00,-0.01,-0.05,0.05
8.771,0.01,0.00,-0.05,0.05
8.781,-0.00,-0.00,-0.04,0.04
8.791,-0.01,-0.01,-0.04,0.04
8.802,0.00,-0.00,-0.05,0.05
8.812,0.01,0.01,-0.02,0.03
8.822,-0.01,-0.01,-0.04,0.04
8.832,-0.01,0.00,-0.05,0.05
8.842,-0.01,0.00,-0.04,0.05
8.852,-0.00,-0.00,-0.04,0.04
8.862,-0.00,0.01,-0.05,0.05
8.872,-0.01,0.00,-0.03,0.03
8.882,-0.00,0.00,-0.04,0.04
8.892,-0.01,-0.01,-0.02,0.03
8.902,0.01,0.01,-0.05,0.05
8.912,-0.01,0.00,-0.05,0.05
8.923,-0.01,0.01,-0.03,0.04
8.932,0.00,0.00,-0.05,0.05
8.942,-0.01,-0.01,-0.05,0.06
8.953,-0.02,-0.01,-0.05,0.05
8.963,-0.01,-0.01,-0.05,0.05
8.973,-0.02,-0.01,-0.04,0.05
8.983,-0.01,-0.00,-0.05,0.05
8.993,0.00,-0.01,-0.06,0.06
9.003,-0.01,-0.01,-0.05,0.06
9.013,0.01,0.00,-0.04,0.05
9.023,0.00,-0.00,-0.05,0.05
9.033,-0.01,0.01,-0.04,0.04
9.043,0.01,0.00,-0.05,0.05
9.054,0.01,-0.00,-0.05,0.05
9.064,0.01,-0.00,-0.05,0.05
9.074,-0.02,-0.01,-0.05,0.05
9.084,-0.01,-0.01,-0.05,0.06
9.094,0.00,0.00,-0.04,0.04
9.104,0.00,-0.01,-0.05,0.05
9.114,0.00,0.01,-0.04,0.05
9.124,-0.00,-0.00,-0.04,0.04
9.134,-0.00,-0.00,-0.04,0.04
9.144,0.01,-0.01,-0.05,0.06
9.154,-0.00,-0.01,-0.05,0.05
9.164,-0.01,-0.01,-0.05,0.05
9.174,0.00,0.00,-0.05,0.05
9.185,0.00,0.00,-0.04,0.04
9.195,-0.00,-0.00,-0.05,0.05
9.205,0.01,-0.00,-0.02,0.03
9.215,0.00,0.00,-0.05,0.05
9.225,-0.01,0.00,-0.06,0.06
9.235,-0.01,-0.01,-0.05,0.05
9.245,-0.01,-0.00,-0.04,0.04
9.255,-0.01,0.00,-0.05,0.05
9.265,0.00,-0.01,-0.04,0.05
9.275,-0.01,0.00,-0.04,0.04
9.285,-0.01,0.00,-0.03,0.03
9.295,0.00,0.00,-0.05,0.05
9.305,0.00,-0.01,-0.05,0.05
9.315,-0.01,0.00,-0.05,0.05
9.326,0.01,0.00,-0.04,0.04
9.336,0.00,-0.00,-0.05,0.05
9.346,-0.02,-0.01,-0.06,0.06
9.356,-0.00,-0.00,-0.05,0.05
9.366,0.01,-0.01,-0.05,0.06
9.376,-0.00,-0.02,-0.05,0.05
9.386,-0.00,-0.01,-0.03,0.04
9.396,-0.01,-0.01,-0.05,0.06
9.406,-0.01,-0.00,-0.04,0.04
9.416,-0.01,0.00,-0.05,0.05
9.427,0.00,0.01,-0.03,0.03
9.437,0.00,-0.00,-0.04,0.04
9.447,-0.01,-0.01,-0.04,0.05
9.457,-0.00,-0.00,-0.04,0.04
9.467,-0.01,-0.00,-0.03,0.03
9.477,-0.01,-0.01,-0.03,0.04
9.487,-0.02,-0.01,-0.04,0.05
9.497,-0.01,-0.02,-0.05,0.06
9.507,-0.02,0.00,-0.04,0.04
9.517,-0.01,-0.00,-0.04,0.04
9.527,0.01,-0.01,-0.04,0.04
9.537,-0.00,0.00,-0.05,0.05
9.547,0.00,-0.01,-0.04,0.04
9.557,0.00,-0.01,-0.05,0.05
9.568,-0.00,-0.00,-0.04,0.04
9.578,-0.01,-0.01,-0.04,0.04
9.588,0.00,-0.01,-0.05,0.05
9.598,-0.01,-0.01,-0.05,0.05
9.608,-0.01,-0.01,-0.05,0.05
9.618,-0.00,-0.00,-0.04,0.04
9.628,0.01,-0.00,-0.05,0.05
9.638,0.01,-0.00,-0.06,0.06
9.648,0.00,-0.01,-0.05,0.05
9.658,-0.00,-0.00,-0.04,0.04
9.669,-0.01,-0.03,-0.04,0.05
9.678,0.00,-0.00,-0.05,0.05
9.689,-0.00,-0.01,-0.05,0.05
9.699,0.00,-0.00,-0.05,0.05
9.709,-0.02,0.01,-0.05,0.05
9.719,-0.01,-0.00,-0.04,0.05
9.729,-0.01,-0.00,-0.05,0.05
9.739,-0.01,-0.00,-0.05,0.05
9.749,-0.01,-0.01,-0.05,0.05
9.759,-0.01,-0.01,-0.04,0.05
9.769,0.00,0.00,-0.05,0.05
9.779,-0.00,-0.00,-0.06,0.06
9.789,0.01,0.00,-0.05,0.05
9.800,-0.00,0.00,-0.04,0.04
9.810,-0.01,0.01,-0.05,0.05
9.820,-0.00,0.00,-0.04,0.04
9.830,0.02,-0.01,-0.04,0.04
9.840,0.01,-0.01,-0.04,0.04
9.850,-0.01,0.00,-0.05,0.05
9.860,0.01,-0.00,-0.05,0.05
9.870,-0.00,0.00,-0.03,0.03
9.880,-0.02,-0.01,-0.05,0.05
9.890,-0.01,-0.00,-0.05,0.06
9.900,0.00,-0.00,-0.03,0.03
9.910,-0.00,-0.01,-0.05,0.05
9.921,-0.00,-0.00,-0.05,0.05
9.931,-0.01,-0.00,-0.05,0.05
9.941,-0.01,-0.00,-0.04,0.04
9.951,-0.01,0.00,-0.04,0.04
9.961,-0.01,0.00,-0.05,0.05
9.971,-0.01,0.00,-0.06,0.06
9.981,0.01,0.01,-0.04,0.04
9.991,-0.00,-0.00,-0.06,0.06
10.001,0.00,-0.01,-0.04,0.04
10.011,-0.01,0.00,-0.04,0.04
10.021,0.00,0.01,-0.05,0.05
10.031,0.01,-0.01,-0.06,0.06
10.041,0.02,-0.01,-0.05,0.05
10.052,-0.00,0.01,-0.05,0.05
10.062,-0.01,-0.00,-0.04,0.04
10.072,-0.00,0.00,-0.04,0.04
10.082,-0.00,-0.00,-0.06,0.06
10.092,-0.01,-0.01,-0.05,0.05
10.102,0.00,-0.00,-0.03,0.03
10.112,-0.00,-0.01,-0.05,0.05
10.122,-0.01,-0.01,-0.05,0.06
10.132,0.01,-0.00,-0.06,0.06
10.142,0.00,0.01,-0.05,0.05
10.152,-0.01,-0.00,-0.04,0.04
10.162,-0.01,-0.01,-0.06,0.06
10.173,-0.01,0.01,-0.07,0.07
10.183,-0.00,-0.01,-0.05,0.05
10.193,-0.01,0.00,-0.05,0.05
10.203,-0.00,0.00,-0.06,0.06
10.213,0.00,-0.00,-0.05,0.05
10.223,0.01,-0.01,-0.05,0.05
10.233,-0.01,-0.02,-0.05,0.06
10.243,-0.00,-0.01,-0.05,0.05
10.253,-0.00,-0.01,-0.05,0.05
10.263,0.00,0.01,-0.04,0.04
10.273,-0.02,0.00,-0.05,0.05
10.283,0.00,0.01,-0.05,0.05
10.294,-0.01,-0.01,-0.04,0.04
10.303,0.00,-0.02,-0.05,0.06
10.314,-0.01,-0.00,-0.05,0.05
10.324,-0.01,-0.00,-0.05,0.05
10.334,-0.01,-0.00,-0.05,0.05
10.344,-0.00,-0.02,-0.05,0.05
10.354,0.01,0.01,-0.05,0.05
10.364,0.01,-0.00,-0.05,0.05
10.374,0.00,-0.00,-0.04,0.04
10.384,-0.00,-0.01,-0.04,0.04
10.394,-0.00,-0.01,-0.04,0.05
10.404,0.00,-0.00,-0.04,0.04
10.415,0.00,-0.01,-0.04,0.04
10.425,-0.00,0.00,-0.06,0.06
10.435,-0.00,-0.00,-0.05,0.05
10.445,-0.01,-0.01,-0.04,0.05
10.455,0.01,-0.02,-0.06,0.06
10.465,-0.01,-0.02,-0.05,0.05
10.475,-0.01,-0.01,-0.04,0.04
10.485,-0.02,-0.00,-0.05,0.05
10.495,-0.01,0.00,-0.05,0.05
10.505,-0.01,-0.00,-0.06,0.06
10.515,0.00,0.00,-0.07,0.07
10.525,0.01,-0.00,-0.04,0.05
10.536,-0.01,-0.01,-0.05,0.05
10.545,0.01,-0.01,-0.05,0.05
10.556,0.01,-0.01,-0.04,0.04
10.566,-0.02,0.00,-0.05,0.05
10.576,-0.00,0.00,-0.05,0.05
10.586,-0.00,0.00,-0.05,0.05
10.596,-0.01,0.01,-0.04,0.04
10.606,0.01,-0.01,-0.05,0.05
10.616,-0.01,-0.00,-0.03,0.03
10.626,-0.01,0.00,-0.06,0.06
10.636,-0.01,-0.01,-0.05,0.05
10.646,0.01,-0.02,-0.05,0.05
10.656,-0.01,-0.01,-0.05,0.05
10.667,0.01,0.01,-0.05,0.05
10.677,0.01,0.00,-0.04,0.05
10.687,0.01,0.00,-0.04,0.05
10.697,-0.00,-0.00,-0.05,0.05
10.707,0.01,-0.00,-0.04,0.04
10.717,0.00,-0.01,-0.04,0.04
10.727,-0.00,0.00,-0.05,0.05
10.737,-0.00,-0.01,-0.05,0.05
10.747,0.00,-0.01,-0.05,0.05
10.757,0.00,-0.01,-0.05,0.05
10.767,-0.00,-0.01,-0.04,0.04
10.778,-0.01,-0.00,-0.05,0.05
10.787,0.00,-0.01,-0.05,0.05
10.798,-0.01,0.01,-0.04,0.04
10.807,-0.01,-0.00,-0.04,0.04
10.818,-0.01,-0.01,-0.03,0.04
10.828,0.00,-0.00,-0.05,0.05
10.838,-0.01,-0.01,-0.06,0.06
10.848,-0.01,-0.00,-0.07,0.07
10.858,0.02,-0.00,-0.05,0.05
10.868,-0.00,-0.01,-0.06,0.06
10.878,0.00,-0.01,-0.05,0.05
10.888,-0.01,0.01,-0.05,0.06
10.899,-0.01,-0.02,-0.03,0.04
10.908,-0.01,-0.00,-0.04,0.04
10.919,-0.01,0.01,-0.05,0.05
10.929,-0.00,-0.00,-0.05,0.05
10.939,-0.02,0.01,-0.06,0.06
10.949,-0.01,-0.01,-0.05,0.05
10.959,-0.01,-0.03,-0.04,0.05
10.969,0.01,-0.00,-0.04,0.04
10.979,0.00,0.01,-0.04,0.04
10.989,0.00,-0.01,-0.05,0.05
10.999,-0.00,0.00,-0.04,0.04
11.009,-0.00,-0.00,-0.04,0.04
11.019,0.03,-0.01,-0.05,0.05
11.029,-0.02,-0.01,-0.04,0.04
11.040,0.00,0.01,-0.05,0.05
11.050,-0.00,0.00,-0.04,0.04
11.060,0.00,0.00,-0.04,0.04
11.070,-0.00,-0.00,-0.04,0.04
11.080,-0.01,0.00,-0.04,0.04
11.090,-0.02,0.01,-0.05,0.05
11.100,-0.00,0.00,-0.03,0.03
11.110,-0.00,-0.01,-0.07,0.07
11.120,0.01,0.00,-0.06,0.06
11.130,-0.00,-0.00,-0.05,0.05
11.140,0.01,-0.01,-0.06,0.06
11.150,-0.01,-0.00,-0.05,0.05
11.161,-0.01,-0.01,-0.06,0.06
11.171,-0.00,-0.01,-0.05,0.05
11.181,-0.00,-0.01,-0.05,0.05
11.191,-0.01,-0.00,-0.06,0.06
11.201,-0.01,0.00,-0.05,0.05
11.211,0.00,-0.01,-0.05,0.06
11.221,-0.01,0.00,-0.06,0.06
11.231,-0.00,-0.01,-0.05,0.05
11.241,0.01,0.00,-0.04,0.04
11.251,-0.01,0.01,-0.04,0.05
11.261,0.00,-0.01,-0.07,0.07
11.271,0.01,-0.00,-0.06,0.06
11.282,0.00,-0.02,-0.04,0.05
11.292,-0.01,-0.01,-0.06,0.06
11.302,-0.01,-0.00,-0.06,0.06
11.312,-0.01,0.00,-0.04,0.04
11.322,-0.01,-0.00,-0.05,0.05
11.332,-0.01,-0.00,-0.05,0.05
11.342,-0.01,-0.01,-0.05,0.05
11.352,0.00,-0.00,-0.04,0.04
11.362,-0.00,-0.01,-0.06,0.07
11.372,-0.00,0.01,-0.05,0.05
11.382,0.00,0.01,-0.04,0.05
11.392,-0.00,0.01,-0.04,0.04
11.402,-0.01,0.00,-0.04,0.04
11.413,-0.02,0.00,-0.04,0.05
11.423,-0.00,-0.00,-0.04,0.04
11.433,-0.02,0.00,-0.05,0.05
11.443,-0.01,-0.00,-0.05,0.05
11.453,0.01,0.00,-0.04,0.04
11.463,-0.01,-0.01,-0.05,0.05
11.473,0.01,-0.00,-0.06,0.06
11.483,-0.00,0.00,-0.06,0.06
11.493,-0.00,0.01,-0.05,0.05
11.503,-0.01,0.01,-0.06,0.06
11.513,-0.01,-0.01,-0.04,0.04
11.524,-0.01,-0.00,-0.06,0.07
11.534,-0.01,-0.00,-0.06,0.06
11.544,-0.01,0.00,-0.05,0.05
11.554,-0.01,0.00,-0.05,0.06
11.564,-0.00,-0.00,-0.04,0.04
11.574,0.01,-0.01,-0.05,0.05
11.584,-0.01,-0.01,-0.05,0.05
11.594,-0.00,0.01,-0.06,0.06
11.604,-0.02,0.01,-0.06,0.06
11.614,0.01,-0.01,-0.05,0.05
11.624,0.00,-0.00,-0.04,0.04
11.634,0.02,0.00,-0.05,0.06
11.645,0.00,0.01,-0.04,0.04
11.654,-0.02,-0.01,-0.04,0.04
11.665,0.00,-0.02,-0.04,0.04
11.675,0.00,-0.01,-0.05,0.05
11.685,0.00,-0.00,-0.04,0.04
11.695,-0.02,0.01,-0.03,0.03
11.705,0.01,-0.01,-0.05,0.05
11.715,-0.00,-0.01,-0.05,0.05
11.725,0.01,-0.01,-0.04,0.04
11.735,-0.01,0.00,-0.05,0.05
11.745,0.01,-0.01,-0.04,0.04
11.755,-0.00,-0.01,-0.04,0.04
11.765,0.00,-0.01,-0.05,0.05
11.775,0.00,-0.00,-0.06,0.06
11.786,-0.01,0.01,-0.05,0.05
11.796,0.01,0.00,-0.06,0.06
11.806,0.00,-0.02,-0.04,0.05
11.816,-0.01,-0.01,-0.05,0.05
11.826,0.00,-0.00,-0.04,0.04
11.836,0.00,0.01,-0.05,0.05
11.846,-0.01,-0.00,-0.05,0.05
11.856,-0.00,0.01,-0.06,0.06
11.866,-0.01,0.00,-0.05,0.05
11.876,0.00,0.00,-0.06,0.06
11.887,0.00,-0.01,-0.06,0.06
11.896,-0.00,-0.01,-0.06,0.06
11.907,0.01,-0.00,-0.05,0.05
11.917,-0.00,0.01,-0.06,0.06
11.927,-0.01,0.00,-0.03,0.04
11.937,0.00,-0.01,-0.05,0.05
11.947,0.01,-0.00,-0.04,0.04
11.957,-0.00,-0.00,-0.06,0.06
11.967,-0.00,-0.01,-0.05,0.05
11.977,-0.01,0.00,-0.05,0.05
11.987,0.00,0.01,-0.05,0.05
11.997,-0.01,-0.00,-0.05,0.05
12.008,-0.01,0.01,-0.06,0.06
12.017,0.01,-0.01,-0.04,0.04
12.028,-0.00,-0.00,-0.05,0.05
12.038,0.00,-0.01,-0.05,0.05
12.048,-0.01,0.01,-0.06,0.06
12.058,0.00,0.01,-0.04,0.04
12.068,-0.00,0.00,-0.05,0.05
12.078,-0.00,0.01,-0.04,0.04
12.088,-0.00,-0.00,-0.05,0.05
12.098,0.01,-0.01,-0.06,0.06
12.108,0.00,0.00,-0.06,0.06
12.118,-0.01,0.00,-0.05,0.06
12.128,0.01,0.00,-0.05,0.05
12.138,0.02,-0.00,-0.04,0.05
12.149,-0.02,0.01,-0.05,0.06
12.159,-0.01,-0.00,-0.04,0.04
12.169,-0.01,0.00,-0.04,0.04
12.179,-0.01,-0.00,-0.04,0.04
12.189,0.01,-0.00,-0.05,0.05
12.199,-0.01,-0.01,-0.06,0.06
12.209,0.01,-0.01,-0.05,0.05
12.219,-0.01,-0.01,-0.06,0.06
12.229,0.01,-0.01,-0.06,0.06
12.239,-0.00,-0.01,-0.04,0.05
12.249,-0.01,0.01,-0.04,0.04
12.259,-0.00,-0.01,-0.05,0.05
12.270,0.01,0.00,-0.06,0.06
12.280,-0.01,0.01,-0.06,0.06
12.290,0.00,-0.00,-0.06,0.06
12.300,0.00,-0.01,-0.05,0.05
12.310,-0.00,-0.02,-0.05,0.05
12.320,-0.01,-0.02,-0.04,0.04
12.330,0.00,-0.00,-0.05,0.05
12.340,-0.01,0.00,-0.04,0.04
12.350,-0.00,0.01,-0.06,0.06
12.360,-0.00,-0.01,-0.05,0.05
12.370,0.01,0.00,-0.06,0.06
12.380,0.01,-0.00,-0.04,0.04
12.391,0.00,-0.01,-0.05,0.05
12.401,-0.01,0.00,-0.05,0.05
12.411,-0.02,0.01,-0.04,0.04
12.421,-0.01,-0.00,-0.05,0.05
12.431,0.01,0.00,-0.06,0.06
12.441,0.00,-0.01,-0.04,0.04
12.451,-0.00,0.00,-0.03,0.03
12.461,-0.01,0.02,-0.03,0.04
12.471,0.00,-0.01,-0.05,0.05
12.481,0.00,0.00,-0.04,0.04
12.491,0.01,-0.00,-0.05,0.05
12.501,0.01,-0.00,-0.04,0.05
12.512,-0.00,-0.01,-0.05,0.05
12.522,-0.01,-0.01,-0.05,0.05
12.532,0.01,-0.02,-0.03,0.04
12.542,-0.01,-0.00,-0.05,0.06
12.552,0.01,-0.00,-0.05,0.05
12.562,0.00,-0.00,-0.06,0.06
12.572,0.01,-0.01,-0.04,0.04
12.582,-0.00,-0.01,-0.05,0.05
12.592,0.01,-0.00,-0.05,0.05
12.602,0.01,-0.01,-0.04,0.05
12.612,0.01,-0.01,-0.05,0.06
12.622,-0.01,-0.01,-0.07,0.07
12.633,-0.01,-0.01,-0.05,0.05
12.643,0.01,-0.01,-0.04,0.05
12.653,0.01,-0.00,-0.05,0.05
12.663,-0.01,-0.01,-0.04,0.04
12.673,0.00,0.00,-0.05,0.05
12.683,-0.01,0.00,-0.05,0.06
12.693,0.00,0.00,-0.05,0.05
12.703,-0.00,-0.01,-0.04,0.04
12.713,-0.00,-0.00,-0.06,0.06
12.723,0.01,0.01,-0.04,0.04
12.733,0.00,-0.01,-0.05,0.05
12.743,-0.01,-0.01,-0.04,0.04
12.754,0.01,-0.01,-0.04,0.05
12.764,-0.01,-0.00,-0.05,0.05
12.774,-0.03,0.01,-0.04,0.05
12.784,-0.00,0.01,-0.04,0.04
12.794,-0.00,0.00,-0.05,0.05
12.804,-0.01,-0.01,-0.06,0.06
12.814,0.01,-0.01,-0.05,0.05
12.824,0.00,0.00,-0.03,0.03
12.834,0.01,0.01,-0.05,0.05
12.844,0.01,0.01,-0.05,0.05
12.854,0.00,-0.01,-0.04,0.04
12.864,0.00,-0.01,-0.03,0.03
12.874,-0.00,-0.00,-0.05,0.05
12.884,0.01,-0.00,-0.05,0.05
12.895,-0.02,-0.01,-0.05,0.06
12.905,-0.02,-0.01,-0.04,0.04
12.915,-0.01,-0.01,-0.06,0.06
12.925,0.00,0.00,-0.05,0.05
12.935,-0.01,0.01,-0.05,0.06
12.945,-0.00,0.00,-0.04,0.04
12.955,0.01,0.01,-0.04,0.04
12.965,0.00,0.01,-0.03,0.04
12.975,0.00,-0.01,-0.04,0.04
12.985,-0.00,-0.00,-0.05,0.05
12.995,-0.01,0.01,-0.05,0.05
13.005,0.01,0.01,-0.06,0.07
13.016,0.00,0.00,-0.05,0.05
13.026,0.00,0.00,-0.04,0.04
13.036,-0.01,0.00,-0.05,0.05
13.046,0.00,-0.00,-0.05,0.05
13.056,-0.01,-0.01,-0.06,0.06
13.066,0.01,0.00,-0.04,0.04
13.076,-0.00,0.01,-0.04,0.04
13.086,0.01,0.01,-0.04,0.05
13.096,-0.00,0.01,-0.04,0.05
13.106,0.01,-0.00,-0.02,0.02
13.116,0.01,0.01,-0.04,0.04
13.126,0.02,0.01,-0.06,0.06
13.137,-0.01,0.01,-0.05,0.05
13.146,-0.01,-0.01,-0.06,0.06
13.157,0.01,0.01,-0.06,0.06
13.167,0.01,0.00,-0.05,0.05
13.177,0.01,-0.00,-0.04,0.04
13.187,-0.00,0.00,-0.04,0.04
13.197,-0.02,-0.01,-0.05,0.05
13.207,-0.01,0.00,-0.06,0.06
13.217,0.00,-0.01,-0.05,0.05
13.227,0.01,-0.01,-0.03,0.03
13.238,0.00,0.01,-0.05,0.05
13.247,-0.01,0.00,-0.06,0.06
13.258,0.01,0.01,-0.05,0.05
13.268,-0.00,-0.00,-0.04,0.04
13.278,-0.01,-0.01,-0.04,0.05
13.288,0.00,0.00,-0.06,0.06
13.298,0.01,-0.00,-0.05,0.05
13.308,-0.00,0.00,-0.05,0.05
13.318,-0.01,0.00,-0.04,0.04
13.328,0.01,-0.02,-0.04,0.04
13.338,0.01,-0.01,-0.06,0.07
13.348,-0.02,0.01,-0.05,0.05
13.358,0.00,-0.00,-0.04,0.04
13.368,0.01,0.00,-0.04,0.04
13.379,-0.00,0.02,-0.05,0.06
13.389,0.01,0.00,-0.04,0.04
13.399,-0.00,-0.01,-0.04,0.04
13.409,-0.01,0.00,-0.05,0.05
13.419,0.01,0.00,-0.06,0.06
13.429,0.00,-0.00,-0.05,0.05
13.439,-0.00,-0.00,-0.05,0.05
13.449,-0.00,-0.01,-0.05,0.05
13.459,-0.01,0.00,-0.04,0.04
13.469,-0.00,-0.01,-0.05,0.05
13.479,0.01,-0.00,-0.05,0.05
13.489,-0.01,-0.00,-0.04,0.04
13.500,-0.00,-0.00,-0.05,0.05
13.510,0.02,0.00,-0.03,0.04
13.520,-0.00,0.00,-0.05,0.05
13.530,0.01,-0.01,-0.05,0.05
13.540,0.01,-0.01,-0.04,0.04
13.550,-0.00,0.01,-0.05,0.05
13.560,-0.01,0.00,-0.05,0.05
13.570,0.01,0.00,-0.05,0.05
13.580,0.00,-0.00,-0.05,0.05
13.590,0.01,0.00,-0.05,0.05
13.600,-0.01,0.01,-0.04,0.04
13.610,-0.00,-0.00,-0.04,0.04
13.621,-0.01,0.00,-0.04,0.04
13.631,-0.00,0.00,-0.05,0.05
13.641,-0.01,0.00,-0.06,0.06
13.651,0.00,0.00,-0.05,0.05
13.661,0.00,-0.00,-0.06,0.06
13.671,-0.00,-0.00,-0.06,0.06
13.681,-0.01,0.01,-0.05,0.06
13.691,0.00,0.01,-0.04,0.05
13.701,0.01,0.01,-0.06,0.06
13.711,0.01,0.01,-0.05,0.05
13.721,-0.01,0.01,-0.04,0.05
13.731,0.01,-0.00,-0.04,0.04
13.742,-0.01,-0.00,-0.06,0.06
13.752,-0.01,-0.00,-0.05,0.05
13.762,0.00,0.01,-0.06,0.06
13.772,0.00,0.00,-0.06,0.06
13.782,0.00,0.00,-0.06,0.06
13.792,0.02,-0.00,-0.05,0.06
13.802,-0.00,-0.01,-0.05,0.05
13.812,-0.01,0.00,-0.05,0.05
13.822,-0.01,0.00,-0.05,0.05
13.832,-0.01,0.01,-0.06,0.06
13.842,-0.01,-0.00,-0.03,0.04
13.852,0.01,0.00,-0.04,0.04
13.863,-0.00,-0.00,-0.03,0.03
13.873,0.00,-0.00,-0.06,0.06
13.883,-0.02,0.00,-0.02,0.03
13.893,-0.01,-0.02,-0.06,0.07
13.903,0.00,0.00,-0.04,0.04
13.913,0.00,-0.00,-0.05,0.05
13.923,-0.01,0.01,-0.04,0.05
13.933,-0.00,0.00,-0.05,0.05
13.943,-0.00,-0.01,-0.03,0.04
13.953,0.00,0.01,-0.05,0.05
13.963,0.00,0.00,-0.05,0.05
13.973,-0.00,0.00,-0.04,0.04
13.984,-0.01,0.01,-0.03,0.03
13.994,-0.00,-0.00,-0.07,0.07
14.004,0.01,-0.01,-0.04,0.04
14.014,-0.00,-0.00,-0.06,0.06
14.024,0.00,-0.00,-0.06,0.06
14.034,0.00,0.01,-0.05,0.05
14.044,0.01,0.01,-0.05,0.05
14.054,0.01,0.00,-0.05,0.05
14.064,-0.01,-0.00,-0.05,0.05
14.074,0.01,0.01,-0.05,0.06
14.084,0.01,-0.00,-0.04,0.04
14.094,0.00,-0.01,-0.05,0.05
14.105,0.00,-0.00,-0.05,0.05
14.115,-0.00,-0.00,-0.05,0.05
14.125,-0.01,0.01,-0.04,0.04
14.135,-0.01,0.00,-0.06,0.06
14.145,-0.01,-0.00,-0.05,0.05
14.155,-0.01,-0.00,-0.05,0.05
14.165,0.01,-0.01,-0.05,0.05
14.175,0.01,0.01,-0.06,0.07
14.185,0.01,-0.01,-0.06,0.06
14.195,-0.01,-0.00,-0.06,0.06
14.205,0.00,0.00,-0.05,0.05
14.215,0.00,0.00,-0.05,0.05
14.226,0.01,0.00,-0.04,0.04
14.236,0.00,-0.01,-0.05,0.05
14.246,-0.01,0.01,-0.05,0.05
14.256,-0.01,-0.01,-0.04,0.05
14.266,0.01,0.00,-0.05,0.05
14.276,0.00,0.00,-0.06,0.06
14.286,0.01,-0.01,-0.05,0.05
14.296,-0.01,-0.00,-0.04,0.04
14.306,-0.01,0.00,-0.05,0.05
14.316,0.00,-0.01,-0.05,0.05
14.326,-0.01,-0.00,-0.05,0.05
14.336,0.01,0.01,-0.04,0.05
14.346,0.01,0.01,-0.06,0.06
14.356,0.00,0.02,-0.05,0.06
14.367,-0.02,-0.00,-0.04,0.04
14.377,-0.00,-0.02,-0.05,0.06
14.387,0.01,-0.01,-0.04,0.04
14.397,0.00,0.01,-0.05,0.06
14.407,-0.01,-0.01,-0.06,0.06
14.417,0.00,0.00,-0.05,0.05
14.427,0.01,0.01,-0.05,0.05
14.437,0.02,0.00,-0.05,0.05
14.447,0.01,0.00,-0.06,0.06
14.457,0.00,-0.00,-0.06,0.06
14.468,-0.00,0.00,-0.05,0.05
14.477,-0.00,-0.00,-0.05,0.05
14.488,-0.00,0.01,-0.04,0.04
14.498,-0.00,0.01,-0.06,0.06
14.508,-0.01,-0.00,-0.06,0.06
14.518,-0.01,0.01,-0.04,0.05
14.528,0.01,0.02,-0.04,0.05
14.538,0.01,-0.00,-0.06,0.07
14.548,-0.01,0.00,-0.04,0.04
14.558,-0.01,0.00,-0.05,0.05
14.568,0.00,0.01,-0.05,0.05
14.578,0.01,0.00,-0.05,0.05
14.588,-0.01,-0.01,-0.05,0.05
14.599,-0.01,0.01,-0.03,0.03
14.609,0.01,-0.00,-0.05,0.05
14.619,0.00,-0.01,-0.05,0.05
14.629,-0.01,0.00,-0.04,0.04
14.639,-0.02,0.00,-0.06,0.06
14.649,-0.01,-0.00,-0.04,0.04
14.659,0.00,-0.01,-0.04,0.04
14.669,-0.00,-0.00,-0.05,0.05
14.679,-0.00,0.01,-0.05,0.05
14.689,-0.00,0.00,-0.04,0.04
14.699,-0.01,0.01,-0.05,0.06
14.709,-0.00,0.01,-0.05,0.05
14.719,-0.01,-0.00,-0.06,0.06
14.730,0.01,-0.02,-0.05,0.06
14.740,-0.01,0.00,-0.05,0.05
14.750,-0.01,0.01,-0.04,0.04
14.760,-0.00,0.00,-0.05,0.05
14.770,-0.01,0.01,-0.04,0.04
14.780,-0.01,-0.00,-0.05,0.05
14.790,-0.01,-0.00,-0.05,0.05
14.800,-0.00,-0.01,-0.05,0.05
14.810,0.00,0.00,-0.04,0.04
14.820,-0.01,0.01,-0.05,0.06
14.830,0.01,0.00,-0.04,0.04
14.840,-0.00,0.01,-0.05,0.05
14.851,-0.00,0.00,-0.04,0.04
14.861,-0.00,0.01,-0.05,0.05
14.871,0.01,0.02,-0.05,0.05
14.881,-0.00,0.00,-0.05,0.05
14.891,0.01,0.02,-0.04,0.04
14.901,0.00,-0.01,-0.04,0.04
14.911,-0.02,0.01,-0.04,0.05
14.921,0.00,0.01,-0.07,0.07
14.931,0.00,0.00,-0.05,0.05
14.941,-0.01,0.01,-0.05,0.05
14.951,-0.01,0.01,-0.06,0.06
14.961,-0.00,0.01,-0.06,0.06
14.972,-0.00,-0.00,-0.05,0.05
14.982,-0.01,-0.01,-0.05,0.05
14.992,-0.02,0.00,-0.04,0.05
15.002,0.00,-0.01,-0.04,0.04
15.012,-0.00,-0.00,-0.07,0.07
15.022,-0.00,0.00,-0.04,0.04
15.032,-0.01,-0.00,-0.05,0.05
15.042,-0.02,-0.01,-0.05,0.05
15.052,-0.01,0.01,-0.05,0.05
15.062,-0.00,0.01,-0.05,0.05
15.072,0.01,-0.01,-0.05,0.05
15.082,-0.01,-0.00,-0.04,0.04
15.093,-0.01,0.01,-0.04,0.04
15.102,-0.01,0.00,-0.04,0.04
15.113,-0.00,0.00,-0.04,0.04
15.123,-0.01,0.01,-0.06,0.06
15.133,-0.01,0.01,-0.05,0.05
15.143,0.00,0.00,-0.05,0.05
15.153,-0.00,-0.00,-0.05,0.05
15.163,-0.00,0.01,-0.06,0.06
15.173,-0.01,0.01,-0.05,0.05
15.183,-0.00,0.00,-0.05,0.05
15.193,0.00,0.00,-0.05,0.05
15.203,-0.02,0.01,-0.05,0.05
15.213,-0.02,0.01,-0.04,0.05
15.223,0.00,0.00,-0.03,0.03
15.234,-0.01,0.01,-0.06,0.06
15.244,-0.01,0.00,-0.06,0.06
15.254,-0.01,0.00,-0.05,0.05
15.264,0.00,0.00,-0.04,0.04
15.274,-0.01,-0.01,-0.06,0.06
15.284,0.00,0.00,-0.05,0.05
15.294,0.00,0.01,-0.05,0.05
15.304,-0.00,-0.00,-0.04,0.04
15.314,-0.01,0.00,-0.04,0.04
15.324,-0.00,-0.00,-0.05,0.05
15.334,0.01,0.00,-0.06,0.06
15.344,-0.01,0.00,-0.05,0.05
15.355,-0.01,0.01,-0.05,0.06
15.365,-0.02,0.01,-0.07,0.07
15.375,0.01,-0.00,-0.06,0.06
15.385,0.02,-0.00,-0.04,0.05
15.395,0.01,0.00,-0.05,0.05
15.405,-0.02,0.00,-0.06,0.06
15.415,-0.01,-0.00,-0.04,0.04
15.425,0.01,0.01,-0.04,0.04
15.435,-0.00,-0.01,-0.06,0.06
15.445,-0.00,0.00,-0.06,0.06
15.456,-0.01,-0.00,-0.04,0.04
15.466,-0.00,0.01,-0.05,0.05
15.476,0.00,-0.00,-0.04,0.04
15.486,0.00,-0.00,-0.05,0.05
15.496,-0.00,0.00,-0.04,0.04
15.506,-0.00,0.01,-0.04,0.04
15.516,0.01,-0.00,-0.05,0.05
15.526,-0.00,0.01,-0.04,0.04
15.536,0.01,0.01,-0.04,0.04
15.546,0.00,0.01,-0.06,0.06
15.556,-0.00,0.01,-0.05,0.05
15.566,-0.01,0.00,-0.06,0.06
15.576,0.00,0.00,-0.06,0.06
15.587,0.02,0.01,-0.04,0.05
15.597,-0.01,-0.01,-0.05,0.05
15.607,-0.00,-0.00,-0.04,0.04
15.617,0.00,-0.00,-0.04,0.04
15.627,-0.01,-0.02,-0.04,0.05
15.637,-0.01,-0.01,-0.05,0.05
15.647,0.00,0.00,-0.05,0.05
15.657,-0.00,-0.00,-0.05,0.05
15.667,0.01,0.01,-0.04,0.05
15.677,-0.00,-0.00,-0.06,0.06
15.687,-0.01,-0.00,-0.03,0.03
15.697,-0.01,0.00,-0.05,0.05
15.707,-0.01,0.01,-0.05,0.05
15.718,0.01,0.01,-0.03,0.04
15.728,-0.00,0.00,-0.05,0.05
15.738,-0.01,0.01,-0.03,0.04
15.748,-0.01,0.01,-0.05,0.05
15.758,-0.02,-0.01,-0.03,0.03
15.768,-0.00,0.01,-0.03,0.04
15.778,-0.01,0.01,-0.04,0.04
15.788,0.00,0.00,-0.05,0.05
15.798,0.00,0.01,-0.04,0.04
15.808,-0.02,-0.01,-0.04,0.04
15.819,0.00,0.01,-0.05,0.05
15.828,-0.00,0.02,-0.05,0.06
15.839,-0.01,0.01,-0.07,0.07
15.849,0.01,0.02,-0.05,0.05
15.859,-0.01,0.01,-0.05,0.06
15.869,0.01,0.01,-0.03,0.03
15.879,-0.01,0.01,-0.04,0.04
15.889,-0.01,-0.01,-0.05,0.05
15.899,0.00,0.00,-0.05,0.05
15.909,-0.01,-0.01,-0.06,0.06
15.919,-0.00,0.01,-0.06,0.06
15.929,0.02,0.01,-0.04,0.05
15.939,-0.01,0.01,-0.04,0.05
15.950,0.00,0.02,-0.05,0.05
15.959,0.01,-0.00,-0.05,0.05
15.969,0.01,0.01,-0.04,0.05
15.980,0.00,0.00,-0.05,0.05
15.990,-0.00,-0.00,-0.05,0.05
16.000,0.01,0.00,-0.05,0.05
16.010,0.01,0.01,-0.05,0.05
16.020,-0.00,0.00,-0.05,0.05
16.030,-0.00,0.01,-0.04,0.04
16.040,-0.00,0.02,-0.05,0.05
16.050,-0.01,-0.00,-0.04,0.04
16.060,0.00,0.00,-0.04,0.04
16.071,-0.03,-0.00,-0.05,0.05
16.081,-0.01,0.01,-0.05,0.05
16.091,-0.02,0.00,-0.04,0.05
16.101,0.00,0.00,-0.05,0.06
16.111,0.00,-0.00,-0.05,0.05
16.121,-0.01,0.00,-0.06,0.06
16.131,-0.00,0.01,-0.06,0.06
16.141,0.01,-0.01,-0.04,0.04
16.151,-0.01,-0.02,-0.05,0.05
16.161,-0.01,0.00,-0.05,0.05
16.171,-0.01,-0.00,-0.05,0.05
16.181,0.01,-0.00,-0.05,0.05
16.191,0.00,0.01,-0.03,0.03
16.201,-0.02,0.01,-0.05,0.05
16.211,-0.01,0.01,-0.04,0.04
16.222,-0.01,0.00,-0.05,0.05
16.232,-0.00,-0.00,-0.05,0.05
16.242,-0.00,-0.00,-0.04,0.04
16.252,0.00,-0.00,-0.05,0.05
16.262,-0.01,-0.01,-0.04,0.04
16.272,0.00,0.01,-0.03,0.03
16.282,-0.01,0.01,-0.04,0.05
16.292,-0.01,0.02,-0.04,0.04
16.302,0.01,0.01,-0.05,0.05
16.312,-0.01,-0.01,-0.05,0.05
16.323,-0.03,0.00,-0.05,0.05
16.332,-0.00,0.01,-0.04,0.04
16.343,0.00,-0.00,-0.03,0.03
16.353,0.01,0.01,-0.05,0.05
16.363,-0.01,-0.00,-0.03,0.03
16.373,-0.01,0.01,-0.05,0.05
16.383,-0.01,0.01,-0.04,0.04
16.393,-0.01,0.01,-0.04,0.04
16.403,0.02,-0.01,-0.05,0.05
16.413,0.00,0.01,-0.06,0.06
16.423,0.01,0.00,-0.03,0.03
16.433,-0.01,0.00,-0.05,0.05
16.444,-0.01,0.01,-0.05,0.05
16.454,-0.00,0.00,-0.04,0.04
16.464,-0.00,0.01,-0.04,0.05
16.474,-0.01,0.01,-0.05,0.05
16.484,-0.02,0.01,-0.05,0.06
16.494,0.00,0.01,-0.04,0.04
16.504,-0.01,-0.00,-0.05,0.05
16.514,-0.01,-0.00,-0.04,0.04
16.524,-0.01,0.01,-0.06,0.06
16.534,0.00,0.00,-0.05,0.05
16.544,-0.01,0.00,-0.05,0.05
16.554,-0.02,0.01,-0.05,0.05
16.564,-0.01,0.01,-0.05,0.06
16.574,0.00,0.01,-0.06,0.06
16.585,-0.01,0.00,-0.04,0.05
16.595,-0.02,-0.00,-0.04,0.05
16.605,-0.02,0.01,-0.04,0.05
16.615,-0.01,0.01,-0.04,0.04
16.625,-0.02,0.01,-0.05,0.05
16.635,-0.01,0.01,-0.05,0.05
16.645,0.01,0.01,-0.05,0.05
16.655,0.01,0.00,-0.04,0.04
16.665,-0.00,-0.00,-0.05,0.05
16.675,-0.01,0.00,-0.06,0.06
16.685,-0.02,0.01,-0.04,0.05
16.695,0.00,-0.00,-0.06,0.06
16.706,0.01,0.02,-0.05,0.05
16.716,-0.01,0.00,-0.05,0.05
16.726,-0.00,0.01,-0.03,0.04
16.736,-0.01,0.00,-0.03,0.04
16.746,0.00,0.01,-0.04,0.04
16.756,-0.02,0.01,-0.04,0.05
16.766,-0.02,-0.00,-0.05,0.05
16.776,-0.01,0.01,-0.04,0.04
16.786,-0.01,0.00,-0.04,0.04
16.796,-0.01,0.01,-0.04,0.04
16.806,0.00,0.00,-0.06,0.06
16.817,-0.01,-0.00,-0.05,0.05
16.827,0.00,0.01,-0.06,0.06
16.837,-0.01,0.01,-0.04,0.04
16.847,-0.02,-0.00,-0.04,0.04
16.857,-0.02,0.01,-0.04,0.05
16.867,-0.01,0.00,-0.05,0.05
16.877,0.00,0.01,-0.04,0.04
16.887,-0.01,0.00,-0.05,0.05
16.897,-0.01,0.00,-0.06,0.06
16.907,-0.01,-0.00,-0.05,0.05
16.917,-0.01,0.01,-0.04,0.05
16.927,-0.01,0.01,-0.03,0.04
16.937,0.01,-0.00,-0.05,0.05
16.948,-0.01,0.00,-0.04,0.04
16.958,-0.02,0.01,-0.05,0.05
16.968,-0.00,0.00,-0.05,0.05
16.978,-0.01,-0.01,-0.05,0.05
16.988,-0.01,-0.01,-0.05,0.05
16.998,-0.01,0.01,-0.05,0.05
17.008,-0.00,0.01,-0.05,0.05
17.018,-0.00,-0.01,-0.05,0.06
17.028,-0.00,0.01,-0.04,0.05
17.038,-0.01,-0.00,-0.06,0.06
17.048,-0.02,-0.00,-0.04,0.05
17.059,-0.00,0.00,-0.05,0.05
17.069,0.00,-0.00,-0.04,0.04
17.079,-0.01,-0.00,-0.04,0.04
17.089,-0.01,0.00,-0.05,0.05
17.099,-0.01,0.01,-0.05,0.05
17.109,-0.00,0.01,-0.05,0.05
17.119,-0.02,-0.00,-0.05,0.05
17.129,-0.00,-0.00,-0.04,0.04
17.139,-0.03,0.02,-0.05,0.06
17.149,-0.01,0.01,-0.03,0.04
17.159,-0.02,0.00,-0.04,0.04
17.170,-0.02,0.01,-0.04,0.05
17.179,-0.01,-0.01,-0.04,0.05
17.190,-0.00,0.01,-0.05,0.05
17.199,0.00,0.00,-0.06,0.06
17.210,-0.01,0.01,-0.04,0.05
17.220,-0.01,0.01,-0.05,0.05
17.230,-0.00,-0.00,-0.05,0.05
17.240,0.00,0.00,-0.04,0.04
17.250,-0.00,0.00,-0.04,0.04
17.260,-0.01,0.01,-0.05,0.05
17.270,-0.01,0.01,-0.04,0.04
17.280,0.01,0.00,-0.05,0.05
17.291,-0.00,-0.00,-0.05,0.05
17.301,0.00,0.00,-0.05,0.05
17.310,-0.01,0.02,-0.05,0.05
17.320,0.00,-0.00,-0.05,0.05
17.331,-0.00,-0.00,-0.03,0.03
17.341,-0.00,0.00,-0.03,0.03
17.351,0.01,-0.00,-0.06,0.07
17.361,-0.00,0.02,-0.04,0.05
17.371,-0.01,0.01,-0.04,0.05
17.381,-0.01,0.00,-0.04,0.04
17.391,-0.02,0.01,-0.05,0.06
17.401,-0.00,0.01,-0.05,0.05
17.411,-0.00,0.01,-0.04,0.04
17.421,-0.00,-0.00,-0.04,0.04
17.431,0.00,0.01,-0.05,0.05
17.442,-0.02,0.01,-0.04,0.05
17.452,0.00,0.02,-0.05,0.05
17.462,-0.01,-0.00,-0.04,0.04
17.472,-0.01,0.00,-0.03,0.03
17.482,-0.02,0.00,-0.04,0.05
17.492,0.00,0.01,-0.05,0.05
17.502,-0.02,0.01,-0.04,0.05
17.512,-0.01,-0.00,-0.05,0.05
17.522,0.00,0.01,-0.05,0.05
17.532,-0.01,0.01,-0.04,0.04
17.542,-0.02,0.01,-0.05,0.05
17.552,-0.01,-0.00,-0.05,0.05
17.562,-0.01,-0.00,-0.04,0.05
17.573,-0.00,0.01,-0.04,0.05
17.583,-0.01,0.01,-0.07,0.07
17.593,-0.02,0.01,-0.06,0.07
17.603,-0.00,0.01,-0.05,0.06
17.613,0.01,0.01,-0.05,0.05
17.623,-0.01,0.00,-0.04,0.04
17.633,-0.01,-0.00,-0.04,0.04
17.643,-0.01,0.00,-0.05,0.05
17.653,-0.02,0.00,-0.05,0.05
17.663,-0.02,0.01,-0.04,0.04
17.673,-0.00,0.01,-0.04,0.04
17.684,-0.00,0.00,-0.03,0.03
17.694,-0.01,0.01,-0.03,0.03
17.704,-0.01,-0.00,-0.04,0.04
17.714,0.01,-0.01,-0.05,0.05
17.724,-0.01,0.01,-0.06,0.06
17.734,-0.00,-0.00,-0.05,0.05
17.744,-0.00,0.01,-0.06,0.06
17.754,-0.01,0.01,-0.05,0.06
17.764,-0.01,0.00,-0.03,0.04
17.774,0.00,0.00,-0.05,0.05
17.784,-0.00,0.01,-0.05,0.05
17.795,-0.02,0.00,-0.04,0.05
17.804,-0.01,0.00,-0.05,0.05
17.815,-0.00,0.01,-0.05,0.06
17.825,0.02,-0.00,-0.04,0.04
17.835,0.00,0.00,-0.05,0.05
17.845,-0.01,0.01,-0.04,0.04
17.855,-0.01,0.01,-0.05,0.05
17.865,-0.00,0.02,-0.04,0.05
17.875,0.00,-0.00,-0.04,0.04
17.885,-0.02,0.01,-0.05,0.05
17.895,-0.02,0.01,-0.05,0.05
17.905,-0.01,0.01,-0.04,0.05
17.915,-0.01,0.01,-0.04,0.05
17.925,-0.01,0.01,-0.04,0.04
17.936,-0.01,0.02,-0.04,0.05
17.946,-0.01,0.02,-0.05,0.05
17.956,-0.02,-0.00,-0.05,0.05
17.966,-0.03,-0.01,-0.06,0.07
17.976,-0.02,0.01,-0.04,0.05
17.986,-0.00,0.02,-0.05,0.05
17.996,-0.02,0.01,-0.04,0.05
18.006,-0.03,0.01,-0.04,0.05
18.016,-0.02,0.01,-0.04,0.04
18.026,-0.01,0.02,-0.04,0.05
18.037,-0.01,0.01,-0.05,0.05
18.046,-0.02,0.01,-0.04,0.04
18.057,-0.02,0.01,-0.06,0.06
18.067,-0.01,0.02,-0.05,0.05
18.077,-0.02,0.02,-0.05,0.06
18.087,0.00,0.02,-0.06,0.07
18.097,-0.03,0.02,-0.04,0.05
18.107,-0.02,0.01,-0.04,0.05
18.117,-0.00,-0.00,-0.06,0.06
18.127,-0.02,-0.00,-0.05,0.06
18.137,-0.02,0.00,-0.03,0.03
18.147,-0.01,0.01,-0.05,0.05
18.157,-0.02,0.01,-0.05,0.06
18.167,-0.03,0.02,-0.05,0.06
18.178,-0.00,0.02,-0.04,0.05
18.187,-0.01,0.01,-0.05,0.05
18.198,-0.02,0.01,-0.06,0.06
18.208,-0.00,0.01,-0.05,0.05
18.218,-0.01,-0.01,-0.05,0.05
18.228,-0.01,0.01,-0.05,0.05
18.238,-0.02,0.00,-0.04,0.04
18.248,-0.01,0.01,-0.04,0.04
18.258,-0.00,0.02,-0.06,0.06
18.268,0.00,0.00,-0.04,0.04
18.278,-0.01,0.01,-0.03,0.04
18.288,-0.01,0.00,-0.05,0.06
18.299,-0.00,0.00,-0.04,0.04
18.308,-0.02,0.01,-0.03,0.04
18.319,-0.02,0.00,-0.03,0.04
18.329,-0.02,0.00,-0.04,0.05
18.339,-0.02,0.01,-0.05,0.05
18.349,-0.02,0.02,-0.04,0.05
18.359,-0.02,0.00,-0.06,0.06
18.369,-0.02,0.00,-0.05,0.06
18.379,-0.01,0.01,-0.04,0.04
18.389,-0.01,0.00,-0.05,0.05
18.399,-0.03,0.01,-0.05,0.06
18.409,-0.02,0.01,-0.04,0.05
18.419,-0.00,-0.00,-0.04,0.04
18.430,-0.03,0.00,-0.05,0.05
18.440,-0.02,0.01,-0.06,0.06
18.450,-0.02,0.00,-0.04,0.05
18.460,-0.01,-0.00,-0.05,0.06
18.470,-0.01,0.01,-0.05,0.05
18.480,0.00,0.00,-0.04,0.04
18.490,-0.01,0.01,-0.04,0.04
18.500,-0.01,0.01,-0.05,0.05
18.510,-0.01,0.00,-0.05,0.05
18.520,-0.02,-0.00,-0.03,0.04
18.530,-0.01,0.01,-0.03,0.03
18.541,-0.00,0.01,-0.05,0.05
18.550,-0.02,0.00,-0.05,0.05
18.561,-0.03,-0.00,-0.05,0.06
18.571,-0.02,0.01,-0.04,0.05
18.581,-0.02,0.01,-0.04,0.05
18.591,-0.01,0.01,-0.04,0.04
18.601,-0.01,0.01,-0.05,0.05
18.611,-0.00,0.01,-0.04,0.04
18.621,-0.02,-0.01,-0.06,0.07
18.631,-0.02,-0.01,-0.06,0.06
18.641,-0.01,0.01,-0.06,0.06
18.652,-0.00,0.01,-0.05,0.05
18.662,-0.02,-0.00,-0.05,0.06
18.672,-0.01,-0.01,-0.05,0.05
18.682,-0.02,-0.00,-0.04,0.04
18.692,-0.01,0.01,-0.04,0.04
18.702,-0.02,0.01,-0.05,0.05
18.712,-0.00,0.01,-0.05,0.05
18.722,-0.01,0.00,-0.06,0.06
18.732,-0.01,0.01,-0.06,0.06
18.742,0.00,0.01,-0.06,0.06
18.752,-0.00,0.01,-0.04,0.04
18.762,-0.03,0.02,-0.03,0.05
18.772,-0.02,0.01,-0.05,0.06
18.782,-0.01,0.01,-0.04,0.04
18.793,-0.01,0.01,-0.04,0.04
18.803,-0.02,0.01,-0.04,0.05
18.813,-0.01,0.00,-0.03,0.04
18.823,-0.01,0.00,-0.04,0.05
18.833,-0.01,0.00,-0.05,0.05
18.843,-0.01,0.02,-0.06,0.06
18.853,-0.00,0.00,-0.05,0.05
18.863,-0.01,0.01,-0.03,0.04
18.873,-0.02,0.01,-0.04,0.04
18.883,-0.01,-0.01,-0.05,0.05
18.893,-0.01,0.01,-0.04,0.05
18.904,0.00,-0.01,-0.04,0.04
18.913,-0.02,0.01,-0.04,0.04
18.924,0.00,0.02,-0.04,0.04
18.934,0.00,0.01,-0.04,0.05
18.944,-0.02,0.01,-0.05,0.05
18.954,-0.00,0.00,-0.04,0.04
18.964,0.00,0.01,-0.05,0.05
18.974,-0.02,0.01,-0.04,0.05
18.984,-0.00,0.00,-0.05,0.05
18.994,-0.02,0.00,-0.05,0.05
19.004,-0.01,0.01,-0.05,0.05
19.014,-0.03,-0.00,-0.04,0.05
19.025,-0.02,0.02,-0.05,0.05
19.034,-0.01,0.01,-0.04,0.04
19.045,-0.00,0.00,-0.04,0.04
19.055,-0.02,0.01,-0.03,0.04
19.065,-0.02,0.02,-0.04,0.05
19.075,-0.01,0.01,-0.05,0.05
19.085,-0.01,-0.01,-0.05,0.05
19.095,-0.01,-0.00,-0.05,0.05
19.105,0.01,0.01,-0.05,0.05
19.115,-0.02,0.00,-0.03,0.04
19.125,-0.01,-0.01,-0.05,0.05
19.135,-0.02,0.02,-0.04,0.05
19.145,-0.00,0.00,-0.04,0.04
19.155,-0.01,0.01,-0.05,0.05
19.166,-0.01,0.01,-0.05,0.05
19.176,-0.02,0.02,-0.04,0.05
19.186,-0.00,0.01,-0.04,0.04
19.196,-0.02,-0.00,-0.05,0.05
19.206,-0.01,0.00,-0.05,0.05
19.216,-0.01,-0.00,-0.05,0.05
19.226,-0.01,0.00,-0.04,0.04
19.236,-0.03,0.02,-0.05,0.06
19.246,-0.02,0.02,-0.04,0.04
19.256,-0.01,0.01,-0.05,0.05
19.266,-0.02,0.00,-0.05,0.05
19.276,-0.02,-0.00,-0.04,0.05
19.287,-0.01,-0.01,-0.04,0.04
19.297,-0.01,0.01,-0.06,0.06
19.307,-0.00,0.00,-0.06,0.06
19.317,-0.02,0.00,-0.06,0.07
19.327,-0.02,0.01,-0.04,0.04
19.337,-0.01,-0.01,-0.04,0.04
19.347,-0.01,0.01,-0.05,0.05
19.357,-0.02,0.00,-0.04,0.04
19.367,-0.01,0.00,-0.05,0.05
19.377,-0.03,0.02,-0.04,0.05
19.388,-0.01,0.01,-0.04,0.04
19.397,-0.00,-0.02,-0.04,0.05
19.408,-0.01,0.01,-0.05,0.05
19.418,-0.01,0.00,-0.06,0.06
19.428,-0.02,-0.00,-0.05,0.05
19.438,-0.02,-0.00,-0.06,0.06
19.448,-0.03,0.01,-0.04,0.05
19.458,-0.02,0.01,-0.04,0.04
19.468,-0.00,0.01,-0.04,0.05
19.478,-0.01,0.00,-0.04,0.04
19.488,-0.00,0.00,-0.04,0.04
19.498,-0.02,-0.01,-0.04,0.04
19.509,-0.01,-0.00,-0.04,0.05
19.518,-0.01,-0.00,-0.07,0.07
19.529,-0.00,0.01,-0.04,0.04
19.539,0.00,0.00,-0.04,0.05
19.549,-0.02,0.00,-0.05,0.06
19.559,-0.03,-0.00,-0.05,0.06
19.569,-0.01,-0.00,-0.04,0.04
19.579,-0.01,-0.00,-0.04,0.04
19.589,-0.02,0.00,-0.04,0.05
19.599,-0.01,-0.00,-0.04,0.05
19.609,-0.01,-0.01,-0.05,0.05
19.619,-0.02,0.01,-0.05,0.05
19.629,-0.01,0.01,-0.05,0.06
19.639,-0.01,0.00,-0.05,0.05
19.650,-0.01,0.00,-0.04,0.04
19.659,-0.01,0.00,-0.05,0.06
19.670,-0.01,0.00,-0.03,0.04
19.680,-0.02,-0.00,-0.04,0.04
19.690,-0.01,0.01,-0.06,0.06
19.700,-0.01,0.01,-0.05,0.05
19.710,-0.02,0.00,-0.04,0.05
19.720,-0.01,0.01,-0.04,0.04
19.730,-0.01,0.01,-0.04,0.04
19.740,-0.01,-0.00,-0.05,0.05
19.751,-0.02,0.00,-0.04,0.04
19.760,-0.00,-0.00,-0.04,0.04
19.771,-0.02,0.02,-0.06,0.06
19.781,-0.03,0.01,-0.04,0.05
19.791,-0.02,0.01,-0.05,0.05
19.801,-0.01,0.01,-0.05,0.05
19.811,-0.02,-0.00,-0.03,0.04
19.821,-0.00,0.01,-0.05,0.05
19.831,-0.02,0.02,-0.06,0.06
19.841,0.01,-0.01,-0.04,0.04
19.851,-0.01,-0.00,-0.04,0.04
19.861,-0.02,0.01,-0.03,0.04
19.871,-0.01,0.01,-0.03,0.03
19.881,-0.00,-0.01,-0.05,0.05
19.892,0.00,-0.00,-0.05,0.05
19.902,-0.02,0.01,-0.03,0.03
19.912,-0.02,0.01,-0.05,0.05
19.922,-0.02,-0.00,-0.05,0.05
19.932,-0.02,-0.01,-0.02,0.03
19.942,-0.01,0.00,-0.04,0.04
19.952,-0.01,0.00,-0.04,0.05
19.962,-0.03,0.01,-0.05,0.06
19.972,-0.01,0.01,-0.04,0.04
19.982,-0.02,0.01,-0.03,0.04
19.992,-0.02,0.00,-0.05,0.05
20.002,-0.02,0.01,-0.05,0.06
20.013,-0.01,-0.01,-0.05,0.05
20.023,-0.00,0.01,-0.05,0.05
20.033,-0.01,0.01,-0.06,0.07
20.043,-0.01,0.00,-0.04,0.04
20.053,-0.01,0.00,-0.04,0.04
20.063,-0.01,0.01,-0.05,0.05
20.073,0.01,0.01,-0.05,0.05
20.083,-0.01,-0.01,-0.04,0.04
20.093,-0.00,0.01,-0.05,0.05
20.103,-0.01,-0.00,-0.05,0.05
20.113,-0.01,-0.00,-0.04,0.04
20.124,-0.01,-0.00,-0.04,0.04
20.134,-0.00,-0.00,-0.03,0.03
20.144,-0.01,-0.01,-0.05,0.06
20.154,-0.02,0.00,-0.03,0.04
20.164,-0.00,-0.00,-0.05,0.05
20.174,-0.00,0.01,-0.05,0.05
20.184,-0.01,-0.00,-0.03,0.03
20.194,-0.01,0.01,-0.05,0.05
20.204,-0.02,0.00,-0.05,0.05
20.214,-0.00,0.00,-0.06,0.06
20.224,-0.00,0.01,-0.04,0.04
20.234,-0.01,0.00,-0.04,0.04
20.244,-0.00,0.01,-0.04,0.04
20.255,-0.02,-0.00,-0.05,0.06
20.264,-0.00,0.00,-0.04,0.04
20.275,-0.02,0.00,-0.05,0.05
20.285,-0.01,-0.00,-0.04,0.04
20.295,-0.00,0.01,-0.04,0.04
20.305,-0.01,0.02,-0.05,0.05
20.315,-0.02,-0.01,-0.04,0.04
20.325,-0.02,-0.01,-0.04,0.05
20.335,-0.01,0.01,-0.05,0.06
20.345,-0.02,0.00,-0.05,0.05
20.355,-0.01,0.01,-0.05,0.05
20.365,0.00,0.00,-0.04,0.04
20.375,-0.02,0.00,-0.04,0.04
20.386,-0.03,0.01,-0.05,0.06
20.396,-0.01,0.01,-0.05,0.05
20.406,-0.01,-0.01,-0.04,0.04
20.416,-0.01,0.00,-0.04,0.04
20.426,-0.02,-0.00,-0.05,0.05
20.436,-0.02,0.01,-0.05,0.05
20.446,-0.02,0.01,-0.05,0.06
20.456,-0.02,-0.00,-0.04,0.04
20.466,-0.02,0.00,-0.05,0.05
20.476,-0.02,0.01,-0.06,0.06
20.486,-0.01,0.01,-0.06,0.06
20.496,-0.02,0.01,-0.03,0.04
20.506,-0.00,0.01,-0.05,0.05
20.517,-0.01,-0.00,-0.04,0.05
20.527,-0.02,-0.00,-0.04,0.04
20.537,-0.01,-0.00,-0.04,0.04
20.547,-0.01,-0.00,-0.02,0.02
20.557,-0.01,0.01,-0.04,0.05
20.567,0.00,0.01,-0.05,0.05
20.577,0.00,0.02,-0.06,0.06
20.587,-0.02,0.02,-0.05,0.06
20.597,0.01,0.01,-0.03,0.04
20.607,0.00,0.00,-0.05,0.05
20.617,0.00,0.01,-0.07,0.07
20.627,0.01,0.01,-0.06,0.06
20.638,-0.00,-0.00,-0.04,0.04
20.648,-0.01,0.00,-0.05,0.06
20.658,-0.01,-0.00,-0.05,0.05
20.668,-0.01,0.02,-0.05,0.05
20.678,-0.03,0.01,-0.05,0.06
20.688,-0.01,0.01,-0.05,0.05
20.698,-0.01,0.01,-0.05,0.05
20.708,-0.01,0.00,-0.06,0.06
20.719,-0.02,0.00,-0.05,0.05
20.728,-0.01,0.01,-0.05,0.05
20.738,-0.01,-0.01,-0.04,0.05
20.749,-0.02,-0.01,-0.04,0.05
20.759,-0.01,-0.01,-0.04,0.04
20.769,-0.02,-0.00,-0.04,0.05
20.779,-0.01,-0.01,-0.05,0.05
20.789,0.00,0.01,-0.05,0.05
20.799,-0.02,0.01,-0.05,0.05
20.809,-0.02,-0.01,-0.05,0.05
20.819,0.00,0.01,-0.05,0.05
20.829,-0.00,0.01,-0.05,0.05
20.839,-0.01,0.00,-0.07,0.07
20.849,-0.00,-0.00,-0.05,0.05
20.859,-0.01,0.01,-0.04,0.04
20.869,-0.01,0.03,-0.04,0.05
20.880,-0.02,0.01,-0.04,0.04
20.890,-0.01,0.01,-0.04,0.04
20.900,-0.01,0.01,-0.04,0.04
20.910,-0.01,0.01,-0.04,0.04
20.920,-0.01,-0.01,-0.05,0.05
20.930,0.00,0.01,-0.04,0.05
20.940,-0.01,0.01,-0.04,0.04
20.950,-0.02,0.01,-0.04,0.04
20.960,-0.00,0.01,-0.05,0.05
20.970,-0.03,-0.00,-0.06,0.07
20.980,-0.02,0.01,-0.06,0.06
20.990,-0.03,0.00,-0.04,0.05
21.001,-0.01,0.00,-0.03,0.03
21.011,0.00,0.00,-0.05,0.05
21.021,-0.02,-0.00,-0.04,0.04
21.031,-0.01,-0.01,-0.04,0.04
21.041,-0.01,-0.00,-0.04,0.04
21.051,0.01,0.01,-0.04,0.04
21.061,-0.01,0.01,-0.04,0.04
21.071,-0.02,-0.00,-0.04,0.04
21.081,-0.01,-0.00,-0.04,0.05
21.091,-0.00,-0.00,-0.06,0.06
21.101,-0.02,-0.00,-0.04,0.05
21.111,-0.01,0.00,-0.06,0.06
21.122,-0.01,-0.01,-0.05,0.05
21.131,0.00,0.01,-0.04,0.04
21.142,-0.02,0.00,-0.06,0.06
21.152,-0.01,0.01,-0.05,0.05
21.162,0.01,0.01,-0.05,0.05
21.172,-0.00,-0.01,-0.03,0.03
21.182,-0.01,0.00,-0.04,0.04
21.192,-0.00,0.00,-0.06,0.06
21.202,-0.02,0.02,-0.05,0.05
21.212,-0.02,0.00,-0.03,0.04
21.222,-0.00,0.01,-0.05,0.05
21.232,0.00,0.00,-0.04,0.04
21.243,-0.02,0.01,-0.03,0.03
21.253,-0.01,-0.01,-0.04,0.04
21.263,0.01,0.01,-0.06,0.06
21.273,-0.01,0.01,-0.05,0.05
21.283,0.00,0.01,-0.05,0.05
21.293,-0.02,-0.00,-0.05,0.06
21.303,-0.02,-0.01,-0.05,0.06
21.313,-0.01,0.02,-0.06,0.06
21.323,-0.02,0.01,-0.04,0.05
21.333,-0.01,0.01,-0.05,0.05
21.343,0.00,0.01,-0.05,0.05
21.353,-0.02,0.01,-0.04,0.04
21.363,-0.02,0.02,-0.05,0.06
21.373,-0.01,0.01,-0.05,0.05
21.384,-0.02,0.01,-0.04,0.05
21.394,-0.02,0.00,-0.04,0.04
21.404,-0.01,-0.01,-0.03,0.03
21.414,-0.02,0.00,-0.03,0.03
21.424,-0.00,-0.01,-0.04,0.04
21.434,-0.01,0.01,-0.05,0.06
21.444,-0.01,0.01,-0.06,0.06
21.454,-0.01,0.00,-0.05,0.05
21.464,-0.01,0.00,-0.03,0.03
21.474,0.00,-0.00,-0.05,0.05
21.485,-0.02,0.01,-0.05,0.06
21.495,-0.01,0.01,-0.05,0.06
21.505,-0.00,0.01,-0.06,0.06
21.515,0.00,-0.00,-0.04,0.04
21.525,-0.01,-0.01,-0.04,0.04
21.535,-0.02,0.00,-0.04,0.05
21.545,-0.02,-0.00,-0.06,0.06
21.555,-0.01,0.01,-0.04,0.05
21.565,-0.01,0.01,-0.06,0.06
21.575,-0.00,-0.01,-0.04,0.04
21.586,-0.01,0.00,-0.05,0.05
21.595,-0.01,-0.00,-0.04,0.04
21.606,-0.01,-0.00,-0.04,0.04
21.616,-0.00,0.00,-0.04,0.04
21.626,-0.01,0.00,-0.04,0.04
21.636,-0.00,0.01,-0.05,0.05
21.646,-0.01,-0.02,-0.05,0.05
21.656,-0.02,0.00,-0.05,0.05
21.666,-0.01,0.00,-0.05,0.05
21.676,-0.00,0.01,-0.05,0.05
21.686,-0.01,0.01,-0.04,0.04
21.696,-0.01,0.00,-0.05,0.05
21.706,-0.01,0.01,-0.04,0.04
21.716,-0.01,0.01,-0.05,0.05
21.727,-0.00,0.01,-0.04,0.04
21.737,-0.01,-0.00,-0.02,0.03
21.747,-0.01,0.01,-0.04,0.05
21.757,-0.02,-0.01,-0.05,0.06
21.767,-0.01,0.02,-0.06,0.06
21.777,-0.02,0.01,-0.05,0.05
21.787,0.01,0.01,-0.04,0.04
21.797,-0.02,0.02,-0.03,0.04
21.807,-0.02,-0.00,-0.03,0.04
21.817,0.00,0.00,-0.04,0.04
21.827,-0.00,-0.01,-0.04,0.04
21.837,-0.01,0.01,-0.03,0.03
21.848,-0.00,-0.00,-0.04,0.04
21.858,-0.01,-0.00,-0.05,0.06
21.868,-0.01,0.00,-0.04,0.05
21.878,-0.02,0.01,-0.03,0.04
21.888,0.00,0.01,-0.04,0.04
21.898,-0.01,0.01,-0.04,0.04
21.908,0.00,0.01,-0.05,0.05
21.918,-0.01,0.01,-0.04,0.05
21.928,-0.02,0.00,-0.05,0.05
21.938,-0.01,0.00,-0.04,0.04
21.948,-0.03,0.00,-0.04,0.04
21.958,-0.01,0.01,-0.05,0.05
21.969,-0.01,0.01,-0.05,0.05
21.978,-0.00,0.02,-0.06,0.06
21.989,-0.00,0.00,-0.05,0.05
21.999,-0.01,0.01,-0.04,0.04
22.009,-0.01,0.02,-0.05,0.05
22.019,-0.01,0.02,-0.04,0.04
22.029,-0.01,0.01,-0.04,0.04
22.039,0.01,0.00,-0.05,0.05
22.049,0.00,0.01,-0.05,0.05
22.059,-0.00,-0.00,-0.06,0.06
22.069,-0.01,0.00,-0.05,0.05
22.079,-0.01,-0.02,-0.05,0.06
22.090,0.01,-0.00,-0.07,0.07
22.099,-0.02,0.01,-0.05,0.05
22.110,-0.04,0.01,-0.04,0.06
22.120,-0.01,-0.00,-0.04,0.04
22.130,-0.02,0.00,-0.05,0.05
22.140,-0.02,0.01,-0.04,0.05
22.150,-0.02,-0.00,-0.03,0.04
22.160,-0.02,0.02,-0.04,0.05
22.170,-0.01,0.01,-0.03,0.04
22.180,-0.01,0.01,-0.05,0.06
22.190,-0.01,0.01,-0.02,0.03
22.200,-0.02,0.00,-0.03,0.04
22.211,-0.01,-0.00,-0.04,0.05
22.220,-0.01,0.01,-0.04,0.04
22.231,-0.03,0.00,-0.05,0.06
22.241,-0.01,0.01,-0.04,0.04
22.251,-0.01,0.00,-0.04,0.04
22.261,-0.03,-0.01,-0.05,0.06
22.271,-0.01,0.00,-0.05,0.05
22.281,0.01,0.00,-0.06,0.06
22.291,-0.01,0.00,-0.03,0.04
22.301,0.00,0.00,-0.04,0.04
22.311,-0.00,0.02,-0.06,0.06
22.321,0.00,0.00,-0.05,0.05
22.331,-0.01,0.01,-0.05,0.05
22.342,-0.01,0.02,-0.04,0.04
22.352,-0.02,0.00,-0.05,0.05
22.362,-0.00,0.00,-0.04,0.04
22.372,-0.00,0.03,-0.04,0.05
22.382,-0.01,-0.00,-0.06,0.06
22.392,-0.01,0.02,-0.03,0.04
22.402,0.00,-0.01,-0.03,0.04
22.412,0.00,-0.00,-0.04,0.04
22.422,-0.00,0.01,-0.03,0.04
22.432,-0.01,-0.00,-0.05,0.05
22.442,-0.02,-0.01,-0.04,0.04
22.452,-0.00,0.00,-0.05,0.05
22.463,-0.01,0.00,-0.03,0.03
22.473,-0.00,0.01,-0.05,0.05
22.483,-0.01,0.01,-0.05,0.05
22.493,0.00,0.01,-0.05,0.05
22.503,0.00,-0.01,-0.05,0.05
22.513,0.01,0.01,-0.03,0.03
22.523,-0.01,0.00,-0.03,0.04
22.533,-0.01,-0.00,-0.05,0.05
22.543,-0.00,0.01,-0.05,0.05
22.553,-0.01,-0.01,-0.04,0.04
22.563,-0.01,0.01,-0.04,0.04
22.573,-0.01,0.01,-0.03,0.04
22.583,-0.02,0.00,-0.04,0.05
22.593,-0.02,0.01,-0.04,0.05
22.604,-0.01,0.01,-0.05,0.05
22.614,-0.02,-0.01,-0.04,0.04
22.624,-0.02,-0.01,-0.04,0.05
22.634,-0.00,-0.00,-0.03,0.03
22.644,-0.01,0.01,-0.05,0.06
22.654,0.01,0.02,-0.06,0.06
22.664,0.00,0.02,-0.04,0.05
22.674,-0.02,-0.00,-0.06,0.06
22.684,-0.03,-0.00,-0.06,0.07
22.694,-0.01,0.00,-0.04,0.04
22.704,0.00,-0.01,-0.05,0.05
22.715,-0.02,0.01,-0.05,0.06
22.725,-0.01,0.02,-0.04,0.05
22.735,-0.01,-0.00,-0.06,0.06
22.745,0.00,-0.00,-0.06,0.06
22.755,-0.01,-0.00,-0.03,0.04
22.765,-0.01,0.01,-0.05,0.05
22.775,0.01,0.00,-0.04,0.04
22.785,-0.02,0.01,-0.04,0.05
22.795,-0.00,0.00,-0.04,0.04
22.805,0.02,0.00,-0.04,0.04
22.815,-0.01,0.01,-0.04,0.04
22.825,-0.01,0.00,-0.06,0.06
22.836,0.00,0.01,-0.06,0.06
22.845,-0.01,0.01,-0.04,0.04
22.856,-0.01,0.02,-0.05,0.06
22.866,-0.00,0.01,-0.06,0.06
22.876,-0.02,-0.02,-0.05,0.06
22.886,-0.00,0.01,-0.04,0.04
22.896,-0.01,-0.01,-0.06,0.06
22.906,-0.01,0.00,-0.04,0.04
22.916,-0.01,0.01,-0.04,0.04
22.926,-0.01,-0.01,-0.05,0.05
22.936,-0.01,-0.01,-0.04,0.04
22.946,-0.02,0.00,-0.05,0.06
22.957,-0.02,0.01,-0.06,0.06
22.966,-0.01,0.01,-0.04,0.04
22.977,-0.00,-0.00,-0.06,0.06
22.987,0.01,0.01,-0.05,0.05
22.997,-0.00,0.01,-0.05,0.05
23.007,0.00,-0.00,-0.03,0.03
23.017,-0.01,0.00,-0.04,0.04
23.027,-0.02,0.01,-0.03,0.04
23.037,-0.01,0.00,-0.05,0.05
23.047,0.00,-0.00,-0.03,0.03
23.058,-0.01,0.00,-0.04,0.04
23.067,-0.02,0.01,-0.04,0.04
23.078,-0.00,-0.00,-0.05,0.05
23.088,-0.00,0.01,-0.04,0.04
23.098,-0.00,0.01,-0.04,0.04
23.108,-0.01,-0.01,-0.04,0.04
23.118,-0.00,-0.01,-0.05,0.05
23.128,-0.01,0.01,-0.03,0.03
23.138,-0.01,-0.00,-0.04,0.04
23.148,-0.02,0.01,-0.05,0.05
23.158,-0.02,0.01,-0.04,0.04
23.168,-0.00,0.00,-0.06,0.06
23.178,-0.00,0.01,-0.05,0.05
23.188,0.00,0.00,-0.05,0.05
23.199,-0.00,0.00,-0.03,0.03
23.209,-0.02,-0.01,-0.04,0.05
23.219,-0.01,-0.00,-0.04,0.05
23.229,-0.01,-0.00,-0.04,0.04
23.239,-0.02,-0.01,-0.03,0.04
23.249,-0.00,-0.01,-0.05,0.05
23.259,-0.01,0.01,-0.05,0.05
23.269,-0.00,-0.00,-0.06,0.06
23.279,0.00,-0.00,-0.04,0.04
23.289,0.00,-0.01,-0.03,0.03
23.299,-0.00,0.01,-0.04,0.04
23.309,-0.02,0.01,-0.03,0.04
23.319,-0.02,0.01,-0.03,0.04
23.329,-0.02,-0.00,-0.04,0.05
23.340,-0.01,0.01,-0.03,0.03
23.350,-0.00,0.01,-0.04,0.04
23.360,0.00,0.00,-0.04,0.04
23.370,0.00,-0.00,-0.04,0.05
23.380,-0.00,-0.00,-0.03,0.03
23.390,0.01,0.01,-0.03,0.03
23.400,-0.02,0.00,-0.05,0.05
23.410,-0.01,0.00,-0.05,0.05
23.420,-0.02,-0.01,-0.05,0.06
23.430,-0.01,0.01,-0.05,0.05
23.441,-0.01,0.00,-0.05,0.06
23.450,0.00,0.01,-0.05,0.05
23.461,-0.01,-0.02,-0.05,0.05
23.471,-0.02,-0.01,-0.04,0.05
23.481,-0.00,-0.00,-0.04,0.04
23.491,0.00,0.00,-0.05,0.05
23.501,0.01,0.01,-0.06,0.06
23.511,-0.03,0.00,-0.05,0.06
23.521,0.01,-0.01,-0.04,0.04
23.531,-0.01,-0.00,-0.04,0.05
23.541,-0.00,0.02,-0.04,0.05
23.551,-0.00,-0.00,-0.04,0.04
23.561,-0.02,-0.01,-0.04,0.04
23.571,-0.02,-0.00,-0.04,0.04
23.582,-0.01,0.01,-0.04,0.04
23.592,-0.01,0.00,-0.06,0.06
23.602,0.00,-0.00,-0.03,0.03
23.612,-0.01,0.01,-0.05,0.05
23.622,-0.01,-0.01,-0.03,0.03
23.632,-0.00,0.01,-0.07,0.07
23.642,-0.00,0.01,-0.01,0.02
23.652,-0.01,0.01,-0.05,0.05
23.662,0.00,0.01,-0.04,0.04
23.672,-0.01,-0.00,-0.07,0.07
23.682,-0.02,0.01,-0.02,0.03
23.692,-0.01,-0.01,-0.06,0.06
23.703,-0.01,0.01,-0.01,0.02
23.713,-0.01,0.01,-0.07,0.07
23.723,0.01,-0.00,-0.00,0.01
23.733,-0.01,0.00,-0.07,0.08
23.743,-0.01,-0.01,-0.02,0.03
23.753,-0.00,-0.00,-0.05,0.05
23.763,-0.02,0.01,-0.02,0.03
23.773,-0.01,0.01,-0.08,0.08
23.783,-0.01,-0.00,-0.03,0.03
23.793,-0.01,-0.01,-0.07,0.07
23.804,-0.01,-0.01,-0.04,0.04
23.813,0.01,-0.01,-0.06,0.06
23.824,-0.00,-0.01,-0.05,0.05
23.834,0.01,0.00,-0.04,0.04
23.844,0.01,0.00,-0.04,0.04
23.854,-0.00,-0.01,-0.03,0.03
23.864,-0.00,-0.00,-0.04,0.04
23.874,-0.01,-0.01,-0.04,0.04
23.884,-0.00,0.00,-0.04,0.04
23.894,-0.01,0.01,-0.04,0.04
23.904,-0.01,0.01,-0.04,0.04
23.914,-0.01,0.00,-0.04,0.04
23.925,-0.00,0.00,-0.06,0.06
23.934,-0.02,-0.01,-0.03,0.04
23.945,-0.01,0.00,-0.06,0.06
23.955,-0.02,0.01,-0.04,0.05
23.965,-0.01,-0.00,-0.06,0.06
23.975,-0.00,0.00,-0.02,0.02
23.985,-0.01,-0.01,-0.07,0.07
23.995,-0.01,-0.02,-0.04,0.04
24.005,-0.02,-0.00,-0.05,0.05
24.015,-0.00,0.01,-0.03,0.03
24.025,-0.00,-0.01,-0.06,0.06
24.035,-0.00,0.01,-0.05,0.05
24.046,-0.00,0.00,-0.06,0.06
24.055,-0.01,0.00,-0.06,0.06
24.066,-0.01,-0.01,-0.05,0.05
24.076,0.01,-0.00,-0.05,0.05
24.086,-0.01,0.01,-0.04,0.04
24.096,-0.01,-0.01,-0.03,0.03
24.106,-0.01,0.00,-0.05,0.05
24.116,-0.00,0.01,-0.05,0.05
24.126,-0.01,-0.01,-0.05,0.05
24.136,-0.01,0.02,-0.05,0.06
24.146,-0.01,-0.00,-0.05,0.05
24.156,0.00,0.00,-0.05,0.05
24.167,0.01,-0.00,-0.03,0.03
24.176,-0.01,0.00,-0.05,0.05
24.187,-0.00,0.01,-0.05,0.05
24.197,-0.01,-0.01,-0.04,0.05
24.207,-0.01,0.00,-0.05,0.05
24.217,0.00,-0.01,-0.04,0.04
24.227,0.01,-0.00,-0.03,0.03
24.237,-0.00,-0.00,-0.05,0.05
24.247,0.00,0.01,-0.05,0.05
24.257,0.00,0.00,-0.05,0.05
24.267,-0.02,0.00,-0.06,0.06
24.277,-0.02,-0.01,-0.04,0.05
24.287,-0.01,-0.00,-0.05,0.06
24.298,-0.01,-0.00,-0.03,0.03
24.308,-0.01,-0.00,-0.03,0.03
24.318,-0.00,0.01,-0.04,0.05
24.328,-0.01,-0.00,-0.04,0.04
24.338,-0.00,-0.01,-0.03,0.03
24.348,-0.01,0.01,-0.04,0.04
24.358,-0.00,0.00,-0.05,0.05
24.368,-0.00,0.02,-0.04,0.04
24.378,-0.01,-0.01,-0.03,0.04
24.388,-0.01,-0.02,-0.05,0.05
24.398,-0.01,-0.00,-0.04,0.05
24.408,0.00,0.01,-0.05,0.05
24.418,0.01,-0.01,-0.04,0.04
24.429,0.00,0.00,-0.05,0.05
24.439,-0.01,0.01,-0.04,0.04
24.449,0.00,-0.00,-0.04,0.04
24.459,-0.02,0.00,-0.04,0.05
24.469,-0.01,0.00,-0.05,0.05
24.479,-0.01,-0.00,-0.04,0.04
24.489,-0.01,0.00,-0.04,0.04
24.499,-0.01,0.00,-0.04,0.04
24.509,-0.01,0.00,-0.05,0.05
24.519,0.00,0.01,-0.04,0.04
24.529,-0.00,-0.01,-0.05,0.05
24.539,-0.01,-0.01,-0.04,0.04
24.550,-0.01,-0.01,-0.05,0.05
24.560,-0.00,0.01,-0.05,0.05
24.570,-0.02,0.00,-0.03,0.04
24.580,0.00,-0.01,-0.04,0.04
24.590,-0.00,-0.00,-0.05,0.05
24.600,-0.01,0.00,-0.05,0.05
24.610,0.00,-0.01,-0.04,0.05
24.620,-0.00,-0.01,-0.06,0.06
24.630,0.00,-0.01,-0.05,0.05
24.640,-0.02,-0.01,-0.04,0.04
24.650,-0.01,0.00,-0.05,0.05
24.660,-0.01,-0.00,-0.06,0.06
24.671,-0.00,-0.01,-0.04,0.04
24.681,-0.01,0.00,-0.06,0.06
24.691,-0.00,-0.00,-0.04,0.04
24.701,-0.01,-0.02,-0.03,0.03
24.711,-0.00,0.01,-0.04,0.04
24.721,-0.00,0.00,-0.05,0.05
24.731,-0.00,-0.00,-0.05,0.05
24.741,-0.01,0.01,-0.06,0.06
24.751,-0.01,-0.01,-0.06,0.06
24.761,-0.02,0.00,-0.03,0.04
24.771,-0.01,-0.00,-0.05,0.05
24.781,-0.02,0.01,-0.05,0.05
24.792,0.01,0.01,-0.04,0.04
24.802,0.01,-0.02,-0.03,0.04
24.812,-0.00,-0.01,-0.04,0.04
24.822,-0.01,-0.00,-0.04,0.04
24.832,-0.00,-0.01,-0.06,0.06
24.842,-0.02,0.01,-0.05,0.05
24.852,-0.01,-0.00,-0.04,0.04
24.862,0.01,-0.01,-0.05,0.05
24.872,0.00,0.01,-0.04,0.04
24.882,-0.00,0.00,-0.05,0.05
24.892,0.01,0.01,-0.05,0.05
24.902,-0.01,-0.01,-0.05,0.05
24.913,-0.01,-0.00,-0.04,0.05
24.923,-0.01,-0.01,-0.04,0.04
24.933,-0.00,-0.01,-0.04,0.04
24.943,0.01,0.00,-0.04,0.04
24.953,-0.00,-0.00,-0.05,0.05
24.963,-0.01,0.02,-0.04,0.04
24.973,0.00,0.01,-0.05,0.05
24.983,0.00,0.01,-0.05,0.05
24.993,0.01,0.01,-0.06,0.06
25.003,-0.02,0.01,-0.05,0.05
25.013,-0.01,-0.01,-0.05,0.05
25.023,-0.00,0.01,-0.05,0.05
25.034,-0.02,0.02,-0.06,0.06
25.043,-0.00,0.01,-0.04,0.04
25.054,-0.02,-0.00,-0.04,0.05
25.064,-0.02,-0.00,-0.04,0.04
25.074,-0.01,-0.01,-0.05,0.05
25.084,-0.02,-0.00,-0.05,0.05
25.094,-0.02,0.01,-0.04,0.04
25.104,-0.02,-0.00,-0.05,0.06
25.114,-0.01,0.00,-0.04,0.04
25.124,0.00,0.00,-0.04,0.04
25.134,0.00,-0.00,-0.06,0.06
25.144,-0.01,0.01,-0.05,0.05
25.155,-0.00,-0.00,-0.05,0.05
25.164,0.01,-0.00,-0.03,0.03
25.175,-0.00,-0.01,-0.04,0.04
25.185,-0.02,-0.00,-0.06,0.06
25.195,0.01,-0.01,-0.06,0.06
25.205,-0.02,-0.01,-0.06,0.07
25.215,-0.01,-0.01,-0.05,0.05
25.225,-0.00,-0.00,-0.04,0.04
25.235,-0.01,-0.01,-0.03,0.03
25.245,-0.01,-0.00,-0.04,0.04
25.255,0.01,0.00,-0.03,0.03
25.265,-0.01,-0.01,-0.03,0.04
25.276,-0.01,-0.01,-0.03,0.03
25.285,0.01,0.02,-0.04,0.05
25.296,-0.02,0.01,-0.05,0.05
25.306,0.00,0.00,-0.05,0.05
25.316,-0.01,-0.01,-0.03,0.04
25.326,0.00,-0.00,-0.05,0.05
25.336,0.00,0.00,-0.06,0.06
25.346,-0.00,-0.01,-0.03,0.03
25.356,0.00,-0.00,-0.05,0.05
25.366,0.01,-0.01,-0.05,0.05
25.376,0.00,-0.01,-0.06,0.06
25.386,-0.01,0.01,-0.06,0.06
25.397,-0.01,-0.01,-0.04,0.04
25.406,-0.01,-0.01,-0.05,0.05
25.417,-0.02,-0.01,-0.05,0.05
25.427,0.01,0.00,-0.04,0.04
25.437,-0.00,-0.00,-0.04,0.04
25.447,-0.01,-0.01,-0.06,0.06
25.457,-0.00,0.01,-0.06,0.06
25.467,0.01,0.00,-0.04,0.04
25.477,-0.00,0.00,-0.04,0.04
25.487,-0.01,0.00,-0.04,0.04
25.497,-0.01,0.00,-0.04,0.04
25.507,0.01,-0.01,-0.05,0.05
25.517,-0.01,0.01,-0.03,0.04
25.527,-0.01,0.00,-0.05,0.05
25.538,-0.00,-0.01,-0.05,0.05
25.548,-0.00,-0.01,-0.05,0.05
25.558,-0.00,-0.01,-0.06,0.06
25.568,0.01,0.01,-0.04,0.05
25.578,-0.01,0.00,-0.03,0.03
25.588,-0.00,0.00,-0.03,0.03
25.598,-0.01,-0.00,-0.05,0.05
25.608,-0.01,-0.00,-0.05,0.05
25.618,-0.02,0.01,-0.06,0.06
25.628,-0.01,0.01,-0.05,0.05
25.638,-0.00,0.00,-0.04,0.04
25.649,-0.01,-0.00,-0.05,0.05
25.659,-0.00,-0.02,-0.04,0.04
25.669,-0.01,-0.01,-0.04,0.04
25.679,-0.03,-0.01,-0.04,0.05
25.689,-0.02,-0.01,-0.06,0.06
25.699,-0.01,0.00,-0.03,0.04
25.709,-0.01,0.00,-0.05,0.05
25.719,-0.00,-0.01,-0.05,0.05
25.729,-0.01,0.01,-0.04,0.04
25.739,-0.02,0.00,-0.05,0.05
25.749,0.00,-0.00,-0.05,0.05
25.759,-0.01,0.01,-0.03,0.03
25.770,-0.01,0.00,-0.03,0.03
25.780,-0.01,0.01,-0.04,0.04
25.790,-0.01,0.00,-0.04,0.04
25.800,-0.01,-0.01,-0.04,0.05
25.810,-0.02,0.00,-0.03,0.04
25.820,-0.02,0.02,-0.04,0.05
25.830,-0.01,-0.01,-0.05,0.05
25.840,0.00,-0.01,-0.05,0.05
25.850,-0.02,-0.02,-0.03,0.04
25.860,-0.00,-0.00,-0.03,0.03
25.870,-0.01,-0.01,-0.06,0.06
25.881,-0.02,-0.01,-0.04,0.05
25.891,0.00,0.00,-0.03,0.03
25.901,-0.00,-0.00,-0.04,0.04
25.911,-0.00,-0.00,-0.04,0.04
25.921,-0.03,0.01,-0.04,0.06
25.931,-0.01,-0.00,-0.03,0.04
25.941,-0.02,-0.00,-0.05,0.06
25.951,-0.00,-0.00,-0.03,0.03
25.961,-0.00,-0.00,-0.04,0.04
25.971,-0.02,-0.00,-0.05,0.05
25.981,-0.02,0.00,-0.03,0.04
25.991,-0.01,-0.01,-0.03,0.03
26.001,-0.00,-0.00,-0.05,0.05
26.011,-0.02,0.01,-0.04,0.04
26.022,-0.03,0.00,-0.05,0.06
26.032,-0.02,-0.01,-0.05,0.06
26.042,0.00,-0.00,-0.04,0.04
26.052,0.01,-0.00,-0.05,0.05
26.062,0.01,0.00,-0.04,0.05
26.072,-0.00,0.00,-0.04,0.04
26.082,-0.01,-0.00,-0.04,0.04
26.092,-0.01,-0.00,-0.04,0.04
26.102,-0.02,0.01,-0.05,0.05
26.112,-0.02,0.02,-0.04,0.05
26.122,-0.00,0.01,-0.04,0.04
26.132,-0.00,0.00,-0.05,0.05
26.143,-0.01,-0.01,-0.05,0.05
26.153,-0.03,-0.01,-0.06,0.07
26.163,0.01,-0.01,-0.05,0.05
26.173,-0.02,-0.01,-0.03,0.04
26.183,-0.01,-0.01,-0.05,0.05
26.193,-0.01,-0.01,-0.05,0.05
26.203,-0.00,0.00,-0.04,0.04
26.213,-0.02,0.00,-0.03,0.04
26.223,-0.01,-0.00,-0.05,0.05
26.233,-0.02,-0.00,-0.04,0.05
26.243,-0.01,-0.00,-0.05,0.05
26.253,-0.01,-0.01,-0.04,0.04
26.264,-0.00,-0.00,-0.05,0.05
26.273,-0.01,0.00,-0.04,0.05
26.284,-0.01,-0.01,-0.05,0.05
26.294,-0.01,-0.00,-0.03,0.04
26.304,0.00,-0.00,-0.04,0.04
26.314,-0.00,-0.01,-0.04,0.04
26.324,-0.01,-0.00,-0.04,0.04
26.334,-0.00,0.01,-0.05,0.05
26.344,-0.00,0.01,-0.04,0.04
26.354,-0.01,-0.00,-0.04,0.04
26.364,-0.02,-0.01,-0.04,0.05
26.374,-0.01,0.01,-0.04,0.04
26.385,0.01,-0.01,-0.05,0.05
26.395,-0.01,-0.01,-0.05,0.06
26.405,-0.01,0.00,-0.04,0.04
26.415,-0.01,-0.01,-0.04,0.05
26.425,0.00,0.01,-0.05,0.05
26.435,0.00,-0.00,-0.04,0.04
26.445,-0.00,-0.02,-0.04,0.04
26.455,-0.01,0.00,-0.05,0.05
26.465,-0.01,-0.01,-0.05,0.05
26.475,-0.01,-0.01,-0.04,0.04
26.485,-0.01,0.01,-0.06,0.06
26.495,-0.00,0.00,-0.05,0.05
26.506,0.01,-0.00,-0.04,0.04
26.515,0.00,0.01,-0.04,0.04
26.526,-0.01,-0.00,-0.04,0.04
26.536,0.01,0.00,-0.05,0.05
26.546,0.01,0.01,-0.04,0.04
26.556,-0.02,0.00,-0.04,0.04
26.566,-0.02,-0.00,-0.04,0.05
26.576,-0.02,-0.00,-0.05,0.05
26.586,-0.01,-0.01,-0.04,0.04
26.596,-0.01,-0.01,-0.03,0.03
26.606,-0.00,-0.02,-0.04,0.04
26.616,-0.00,-0.02,-0.04,0.05
26.627,0.00,-0.00,-0.05,0.05
26.637,-0.02,0.01,-0.05,0.05
26.647,-0.01,-0.01,-0.04,0.04
26.657,-0.01,-0.02,-0.04,0.05
26.667,-0.01,-0.01,-0.05,0.05
26.677,0.01,-0.01,-0.05,0.06
26.687,-0.00,-0.00,-0.06,0.06
26.697,-0.01,-0.00,-0.03,0.03
26.707,0.00,0.01,-0.04,0.04
26.717,-0.01,0.01,-0.05,0.05
26.727,-0.01,0.01,-0.04,0.04
26.737,-0.01,-0.00,-0.06,0.06
26.748,0.01,0.00,-0.04,0.04
26.758,-0.02,0.00,-0.05,0.06
26.768,0.00,0.01,-0.05,0.06
26.778,-0.01,-0.00,-0.04,0.04
26.788,-0.01,-0.01,-0.06,0.06
26.798,-0.01,-0.01,-0.05,0.06
26.808,-0.01,-0.01,-0.04,0.05
26.818,-0.02,0.01,-0.04,0.04
26.828,-0.02,-0.00,-0.04,0.05
26.838,-0.02,-0.01,-0.05,0.06
26.848,-0.01,-0.00,-0.05,0.05
26.858,-0.02,0.01,-0.03,0.03
26.869,-0.00,-0.01,-0.04,0.04
26.878,-0.01,-0.01,-0.05,0.05
26.889,-0.00,-0.00,-0.05,0.05
26.899,-0.01,-0.01,-0.05,0.05
26.909,-0.01,-0.01,-0.04,0.04
26.919,-0.01,-0.01,-0.04,0.04
26.929,-0.00,-0.00,-0.04,0.04
26.939,-0.01,0.00,-0.05,0.05
26.949,-0.02,-0.00,-0.04,0.04
26.959,-0.02,-0.01,-0.04,0.04
26.969,-0.01,0.01,-0.03,0.04
26.979,-0.02,-0.01,-0.04,0.04
26.989,-0.00,-0.00,-0.03,0.03
26.999,-0.02,0.00,-0.05,0.05
27.010,-0.01,-0.01,-0.03,0.04
27.020,-0.01,-0.01,-0.04,0.04
27.030,-0.01,-0.00,-0.04,0.04
27.040,-0.01,0.00,-0.04,0.04
27.050,-0.01,0.01,-0.05,0.05
27.060,-0.02,0.00,-0.06,0.06
27.070,0.01,-0.01,-0.04,0.05
27.080,0.00,0.01,-0.04,0.04
27.090,-0.02,0.01,-0.05,0.05
27.101,-0.00,-0.01,-0.05,0.05
27.111,-0.01,0.00,-0.04,0.04
27.121,-0.01,-0.00,-0.04,0.04
27.131,0.00,-0.01,-0.05,0.05
27.141,-0.01,0.01,-0.05,0.05
27.151,-0.02,-0.01,-0.04,0.05
27.161,-0.01,-0.01,-0.05,0.05
27.171,-0.02,-0.01,-0.06,0.06
27.181,-0.01,0.01,-0.04,0.04
27.191,-0.00,-0.02,-0.05,0.05
27.201,-0.01,0.00,-0.04,0.04
27.211,-0.01,0.01,-0.05,0.05
27.221,0.00,-0.01,-0.04,0.04
27.231,-0.00,0.01,-0.06,0.06
27.242,0.00,-0.00,-0.04,0.04
27.252,-0.01,-0.01,-0.05,0.05
27.262,-0.01,-0.01,-0.05,0.05
27.272,-0.01,-0.00,-0.05,0.05
27.282,-0.02,0.00,-0.04,0.05
27.292,0.00,-0.01,-0.06,0.06
27.302,-0.01,-0.01,-0.04,0.05
27.312,-0.03,0.00,-0.06,0.06
27.322,-0.01,-0.01,-0.04,0.05
27.332,-0.00,-0.01,-0.05,0.05
27.342,-0.01,-0.01,-0.05,0.05
27.352,-0.01,0.01,-0.06,0.06
27.362,-0.02,-0.01,-0.04,0.04
27.373,-0.01,0.00,-0.05,0.05
27.383,0.00,-0.01,-0.05,0.05
27.393,-0.01,-0.01,-0.04,0.05
27.403,-0.01,-0.01,-0.04,0.05
27.413,-0.02,-0.01,-0.05,0.05
27.423,-0.01,0.00,-0.04,0.04
27.433,-0.01,-0.01,-0.05,0.05
27.443,-0.00,0.01,-0.04,0.04
27.453,-0.01,0.00,-0.05,0.05
27.463,0.00,-0.01,-0.04,0.04
27.473,-0.00,-0.01,-0.05,0.05
27.484,-0.03,-0.00,-0.05,0.06
27.494,-0.04,0.00,-0.04,0.06
27.504,-0.01,-0.01,-0.05,0.05
27.514,-0.02,0.00,-0.05,0.05
27.524,-0.01,-0.01,-0.05,0.05
27.534,-0.00,0.00,-0.04,0.04
27.544,-0.01,-0.00,-0.04,0.04
27.554,-0.00,0.01,-0.04,0.05
27.564,-0.00,0.01,-0.04,0.04
27.574,-0.00,0.00,-0.04,0.04
27.584,-0.01,0.00,-0.04,0.05
27.595,-0.01,-0.02,-0.03,0.04
27.604,-0.02,-0.01,-0.05,0.05
27.615,0.00,-0.02,-0.04,0.04
27.625,-0.01,-0.02,-0.04,0.04
27.635,0.00,-0.01,-0.04,0.04
27.645,-0.01,-0.01,-0.04,0.05
27.655,-0.01,-0.01,-0.05,0.05
27.665,0.00,-0.01,-0.06,0.06
27.675,0.00,-0.00,-0.04,0.04
27.685,-0.01,-0.00,-0.05,0.05
27.695,-0.01,-0.00,-0.04,0.04
27.705,-0.01,0.00,-0.05,0.06
27.715,-0.01,0.01,-0.04,0.04
27.725,-0.01,-0.01,-0.05,0.06
27.736,-0.00,0.00,-0.06,0.06
27.746,-0.02,-0.00,-0.05,0.05
27.756,-0.01,-0.01,-0.03,0.03
27.766,-0.01,-0.01,-0.04,0.04
27.776,-0.01,-0.01,-0.03,0.04
27.786,-0.02,-0.01,-0.05,0.05
27.796,-0.01,0.01,-0.04,0.04
27.806,-0.01,0.01,-0.04,0.04
27.816,-0.00,-0.01,-0.04,0.04
27.826,-0.02,0.00,-0.05,0.06
27.837,-0.00,-0.00,-0.05,0.05
27.847,-0.01,-0.00,-0.03,0.03
27.857,-0.00,-0.02,-0.04,0.05
27.867,-0.00,-0.01,-0.04,0.05
27.877,-0.01,-0.01,-0.03,0.03
27.887,0.01,-0.01,-0.04,0.04
27.897,-0.00,0.00,-0.05,0.05
27.907,-0.02,-0.02,-0.05,0.06
27.917,-0.01,-0.01,-0.05,0.05
27.927,-0.00,-0.01,-0.05,0.05
27.937,-0.01,-0.01,-0.05,0.05
27.947,-0.01,-0.00,-0.04,0.04
27.957,-0.00,-0.01,-0.03,0.03
27.967,-0.02,-0.02,-0.05,0.06
27.978,-0.01,-0.01,-0.05,0.05
27.988,-0.00,-0.01,-0.06,0.06
27.998,-0.01,-0.02,-0.04,0.05
28.008,-0.01,-0.01,-0.06,0.06
28.018,-0.02,0.00,-0.04,0.05
28.028,-0.01,0.00,-0.06,0.06
28.038,-0.01,0.01,-0.06,0.06
28.048,-0.00,-0.01,-0.04,0.05
28.058,-0.01,-0.01,-0.04,0.04
28.068,-0.01,0.01,-0.04,0.04
28.078,-0.02,-0.01,-0.04,0.04
28.088,-0.01,-0.01,-0.02,0.02
28.099,-0.01,-0.01,-0.05,0.05
28.108,-0.01,0.00,-0.05,0.05
28.119,0.00,-0.01,-0.04,0.04
28.129,-0.01,-0.00,-0.05,0.05
28.139,-0.02,-0.01,-0.06,0.07
28.149,-0.01,-0.01,-0.03,0.03
28.159,-0.01,-0.01,-0.03,0.03
28.169,-0.01,-0.01,-0.06,0.06
28.179,-0.01,0.00,-0.05,0.05
28.189,0.00,0.00,-0.02,0.02
28.199,0.00,-0.01,-0.05,0.05
28.209,-0.01,-0.02,-0.04,0.05
28.220,-0.01,0.01,-0.03,0.03
28.230,-0.01,-0.00,-0.05,0.05
28.240,-0.00,-0.00,-0.06,0.06
28.250,-0.01,0.01,-0.05,0.05
28.260,-0.00,-0.00,-0.05,0.05
28.270,-0.00,0.01,-0.05,0.05
28.280,-0.01,0.00,-0.03,0.03
28.290,0.01,-0.01,-0.04,0.04
28.300,-0.01,-0.00,-0.04,0.04
28.310,-0.02,-0.02,-0.03,0.04
28.320,0.00,-0.02,-0.04,0.04
28.330,-0.01,-0.01,-0.04,0.05
28.341,-0.01,-0.01,-0.05,0.05
28.351,-0.02,0.01,-0.05,0.06
28.361,-0.02,-0.01,-0.04,0.05
28.371,-0.00,-0.01,-0.03,0.04
28.381,-0.01,0.01,-0.04,0.05
28.391,-0.01,0.00,-0.04,0.04
28.401,-0.01,0.01,-0.05,0.05
28.411,-0.01,0.00,-0.05,0.05
28.421,0.00,-0.02,-0.05,0.05
28.431,-0.01,-0.00,-0.04,0.04
28.441,-0.01,0.00,-0.05,0.05
28.451,-0.01,0.00,-0.04,0.04
28.462,-0.01,0.01,-0.05,0.05
28.472,-0.01,0.01,-0.05,0.05
28.482,-0.01,0.00,-0.03,0.03
28.492,-0.01,-0.00,-0.04,0.04
28.502,-0.01,-0.01,-0.04,0.05
28.512,-0.01,-0.00,-0.04,0.04
28.522,-0.01,0.00,-0.04,0.04
28.532,-0.01,-0.01,-0.05,0.05
28.542,-0.01,-0.00,-0.04,0.04
28.552,-0.01,0.01,-0.03,0.04
28.562,-0.01,-0.01,-0.04,0.04
28.572,0.00,-0.00,-0.05,0.05
28.583,-0.01,-0.01,-0.05,0.05
28.593,-0.00,0.00,-0.04,0.04
28.603,-0.01,-0.01,-0.03,0.04
28.613,-0.01,-0.01,-0.03,0.03
28.623,-0.01,-0.00,-0.04,0.04
28.633,-0.01,-0.01,-0.05,0.05
28.643,-0.01,-0.00,-0.04,0.04
28.653,-0.00,-0.01,-0.05,0.05
28.663,-0.01,-0.01,-0.05,0.05
28.673,-0.01,-0.00,-0.04,0.04
28.683,-0.00,-0.00,-0.04,0.04
28.693,-0.01,0.00,-0.05,0.05
28.704,-0.00,-0.00,-0.04,0.04
28.714,-0.02,-0.00,-0.04,0.05
28.724,-0.01,0.01,-0.03,0.03
28.734,-0.01,-0.00,-0.04,0.04
28.744,-0.01,0.00,-0.04,0.04
28.754,-0.02,0.01,-0.05,0.06
28.764,-0.01,0.01,-0.05,0.05
28.774,-0.01,-0.00,-0.04,0.04
28.784,-0.01,0.01,-0.04,0.04
28.794,-0.01,-0.01,-0.05,0.05
28.804,-0.02,-0.01,-0.04,0.05
28.814,-0.01,0.00,-0.05,0.05
28.824,-0.00,-0.01,-0.05,0.05
28.835,-0.02,-0.00,-0.04,0.05
28.845,-0.00,-0.01,-0.04,0.04
28.855,0.01,0.00,-0.05,0.05
28.865,-0.00,-0.01,-0.05,0.05
28.875,-0.03,-0.01,-0.05,0.06
28.885,-0.02,-0.00,-0.04,0.04
28.895,-0.01,-0.01,-0.04,0.05
28.905,-0.01,-0.02,-0.04,0.04
28.915,-0.00,0.00,-0.03,0.03
28.925,-0.00,-0.02,-0.04,0.05
28.935,0.01,-0.02,-0.04,0.04
28.946,0.00,0.00,-0.03,0.03
28.956,-0.01,-0.00,-0.05,0.05
28.966,-0.01,0.01,-0.05,0.05
28.976,-0.01,0.00,-0.05,0.05
28.986,-0.02,0.01,-0.05,0.06
28.996,-0.00,-0.00,-0.05,0.05
29.006,0.00,0.00,-0.04,0.04
29.016,0.01,-0.00,-0.03,0.04
29.026,-0.01,-0.01,-0.05,0.05
29.036,-0.00,-0.01,-0.04,0.05
29.046,-0.00,-0.01,-0.04,0.04
29.056,-0.00,-0.01,-0.03,0.03
29.067,-0.00,0.00,-0.04,0.04
29.076,-0.00,-0.01,-0.04,0.05
29.087,-0.00,-0.02,-0.03,0.03
29.097,-0.01,-0.00,-0.04,0.04
29.107,-0.02,-0.01,-0.04,0.04
29.117,-0.03,-0.01,-0.03,0.04
29.127,-0.02,0.01,-0.05,0.05
29.137,-0.01,-0.01,-0.04,0.04
29.147,0.00,-0.01,-0.05,0.05
29.157,-0.01,0.00,-0.04,0.04
29.167,-0.01,-0.00,-0.05,0.05
29.177,-0.00,-0.01,-0.05,0.05
29.187,-0.02,-0.00,-0.04,0.04
29.198,-0.02,-0.01,-0.03,0.04
29.208,-0.01,-0.00,-0.05,0.05
29.218,-0.01,-0.00,-0.04,0.04
29.228,-0.02,-0.00,-0.04,0.05
29.238,-0.03,0.00,-0.06,0.06
29.248,-0.02,-0.00,-0.02,0.03
29.258,-0.01,0.00,-0.03,0.03
29.268,0.00,-0.01,-0.04,0.04
29.278,-0.02,0.01,-0.04,0.05
29.288,0.01,-0.01,-0.06,0.06
29.298,-0.00,0.00,-0.05,0.05
29.308,-0.02,-0.01,-0.06,0.06
29.319,-0.01,0.00,-0.05,0.05
29.329,-0.01,0.01,-0.04,0.04
29.339,0.01,0.01,-0.04,0.04
29.349,-0.03,-0.01,-0.04,0.05
29.359,-0.01,-0.01,-0.06,0.06
29.369,-0.01,-0.01,-0.04,0.04
29.379,0.00,-0.02,-0.05,0.05
29.389,-0.01,-0.01,-0.05,0.05
29.399,-0.01,-0.01,-0.05,0.05
29.409,-0.01,-0.01,-0.05,0.05
29.419,0.00,-0.00,-0.05,0.05
29.429,-0.00,0.00,-0.04,0.04
29.439,-0.01,-0.01,-0.05,0.05
29.450,-0.00,-0.01,-0.03,0.04
29.460,0.00,-0.01,-0.05,0.05
29.470,-0.00,-0.01,-0.04,0.04
29.480,0.01,0.00,-0.04,0.04
29.490,-0.01,-0.02,-0.04,0.04
29.500,-0.03,-0.01,-0.05,0.06
29.510,-0.01,-0.00,-0.05,0.05
29.520,0.00,-0.00,-0.05,0.05
29.530,-0.01,-0.00,-0.03,0.03
29.540,0.00,0.00,-0.04,0.04
29.550,0.01,-0.00,-0.05,0.05
29.560,-0.01,-0.00,-0.04,0.05
29.571,-0.02,-0.01,-0.03,0.03
29.581,-0.00,0.00,-0.04,0.04
29.591,0.00,-0.00,-0.06,0.06
29.601,-0.00,-0.01,-0.05,0.05
29.611,-0.02,0.01,-0.05,0.05
29.621,-0.01,-0.00,-0.04,0.04
29.631,-0.01,0.00,-0.04,0.04
29.641,-0.01,-0.01,-0.05,0.05
29.651,-0.02,-0.01,-0.05,0.06
29.661,-0.01,-0.01,-0.02,0.03
29.671,-0.00,-0.00,-0.03,0.03
29.681,-0.01,-0.00,-0.05,0.05
29.692,-0.00,0.01,-0.05,0.05
29.702,-0.01,-0.00,-0.04,0.04
29.712,-0.01,-0.01,-0.05,0.05
29.722,-0.00,-0.01,-0.05,0.05
29.732,-0.00,-0.01,-0.04,0.04
29.742,-0.01,-0.01,-0.05,0.05
29.752,-0.01,0.01,-0.04,0.05
29.762,-0.01,-0.01,-0.04,0.04
29.772,-0.01,0.01,-0.05,0.05
29.782,-0.02,0.00,-0.04,0.05
29.792,-0.01,-0.01,-0.04,0.05
29.802,0.00,-0.01,-0.03,0.03
29.813,-0.01,-0.01,-0.06,0.06
29.823,-0.01,0.00,-0.04,0.04
29.833,-0.00,0.00,-0.04,0.04
29.843,-0.00,-0.00,-0.06,0.06
29.853,-0.02,-0.01,-0.04,0.05
29.863,-0.00,-0.02,-0.04,0.05
29.873,-0.01,-0.00,-0.04,0.04
29.883,-0.02,-0.00,-0.04,0.05
29.893,-0.00,-0.00,-0.06,0.06
29.903,-0.00,0.01,-0.06,0.06
29.913,-0.00,0.01,-0.04,0.04
29.923,-0.01,-0.01,-0.05,0.05
29.934,-0.01,0.00,-0.04,0.04
29.944,-0.01,-0.00,-0.05,0.05
29.954,0.00,0.00,-0.04,0.04
29.964,0.00,0.00,-0.05,0.05
29.974,0.01,-0.00,-0.04,0.04
29.984,-0.00,0.00,-0.05,0.05
29.994,0.00,0.00,-0.04,0.04
30.004,-0.02,-0.01,-0.05,0.06
30.014,0.01,-0.00,-0.04,0.04
30.024,0.01,-0.00,-0.04,0.04
30.034,0.01,-0.01,-0.06,0.06
30.044,-0.01,0.00,-0.04,0.04
30.055,-0.01,-0.01,-0.06,0.06
30.064,0.00,0.01,-0.06,0.06
30.075,-0.01,0.00,-0.05,0.05
30.085,-0.02,-0.01,-0.03,0.04
30.095,-0.01,0.00,-0.05,0.06
30.105,-0.01,0.00,-0.04,0.04
30.115,-0.00,0.00,-0.04,0.04
30.125,-0.00,0.00,-0.04,0.04
30.135,-0.01,-0.01,-0.04,0.04
30.145,-0.00,-0.00,-0.05,0.05
30.155,-0.00,-0.01,-0.06,0.06
30.165,-0.00,-0.00,-0.06,0.06
30.176,-0.02,0.02,-0.04,0.05
30.186,-0.00,-0.00,-0.05,0.05
30.196,-0.02,-0.00,-0.04,0.05
30.206,-0.00,0.00,-0.04,0.04
30.216,0.00,-0.01,-0.05,0.05
30.226,-0.01,-0.01,-0.04,0.04
30.236,0.00,0.01,-0.04,0.04
30.246,-0.00,-0.01,-0.05,0.05
30.256,-0.00,-0.00,-0.04,0.04
30.266,-0.00,0.00,-0.05,0.05
30.276,0.01,0.00,-0.05,0.05
30.286,0.01,-0.01,-0.05,0.05
30.297,-0.00,-0.00,-0.03,0.03
30.306,-0.01,0.00,-0.04,0.05
30.317,0.00,-0.01,-0.06,0.06
30.327,0.01,0.00,-0.05,0.05
30.337,-0.01,-0.01,-0.05,0.05
30.347,-0.01,-0.01,-0.04,0.05
30.357,-0.01,-0.00,-0.04,0.04
30.367,0.00,-0.00,-0.03,0.03
30.377,-0.02,-0.01,-0.03,0.04
30.387,-0.00,0.00,-0.06,0.06
30.397,0.00,-0.01,-0.05,0.05
30.407,-0.00,0.00,-0.06,0.06
30.418,0.01,-0.00,-0.04,0.04
30.428,-0.02,-0.00,-0.04,0.04
30.438,-0.00,-0.01,-0.05,0.05
30.448,0.01,-0.01,-0.04,0.04
30.458,-0.00,0.00,-0.05,0.05
30.468,-0.01,0.00,-0.03,0.04
30.478,-0.00,-0.01,-0.04,0.04
30.488,-0.01,-0.02,-0.05,0.05
30.498,-0.02,-0.00,-0.04,0.04
30.508,0.00,-0.00,-0.05,0.05
30.518,0.00,0.00,-0.04,0.04
30.528,-0.00,-0.00,-0.04,0.04
30.539,-0.01,-0.01,-0.05,0.05
30.549,-0.01,-0.01,-0.04,0.05
30.559,0.01,-0.00,-0.03,0.03
30.569,0.00,0.00,-0.04,0.04
30.579,-0.00,-0.01,-0.04,0.04
30.589,0.00,-0.00,-0.02,0.02
30.599,0.01,0.01,-0.05,0.05
30.609,-0.02,-0.01,-0.04,0.04
30.619,-0.01,-0.00,-0.04,0.04
30.629,0.01,0.00,-0.03,0.03
30.639,0.01,-0.00,-0.04,0.04
30.650,-0.01,-0.01,-0.05,0.05
30.660,-0.01,0.01,-0.04,0.05
30.670,0.00,-0.01,-0.05,0.05
30.680,0.00,-0.02,-0.06,0.06
30.690,-0.01,-0.00,-0.03,0.03
30.700,-0.00,0.00,-0.04,0.04
30.710,-0.01,-0.01,-0.04,0.04
30.720,-0.01,0.00,-0.03,0.03
30.730,-0.01,0.01,-0.04,0.04
30.740,0.00,-0.01,-0.04,0.04
30.750,0.00,-0.01,-0.05,0.05
30.760,0.01,0.01,-0.04,0.04
30.770,-0.00,-0.01,-0.04,0.04
30.781,-0.01,0.00,-0.04,0.04
30.791,-0.00,-0.00,-0.04,0.04
30.801,-0.00,-0.01,-0.03,0.03
30.811,-0.02,-0.01,-0.06,0.06
30.821,-0.03,-0.00,-0.04,0.05
30.831,0.01,-0.01,-0.04,0.04
30.841,-0.02,-0.01,-0.05,0.06
30.851,0.00,0.00,-0.04,0.04
30.861,0.00,0.01,-0.04,0.05
30.871,-0.01,-0.00,-0.05,0.05
30.881,-0.00,0.01,-0.05,0.06
30.891,0.00,-0.00,-0.04,0.04
30.902,-0.01,-0.00,-0.04,0.04
30.912,-0.01,0.01,-0.05,0.05
30.922,-0.01,-0.01,-0.04,0.04
30.932,-0.00,-0.01,-0.04,0.04
30.942,0.01,0.01,-0.06,0.06
30.952,-0.01,-0.00,-0.06,0.06
30.962,0.01,-0.00,-0.05,0.05
30.972,0.01,0.00,-0.02,0.02
30.982,0.01,-0.01,-0.05,0.05
30.992,-0.01,-0.01,-0.04,0.04
31.002,0.01,-0.00,-0.05,0.05
31.012,-0.00,-0.01,-0.05,0.05
31.023,0.01,-0.01,-0.04,0.04
31.032,0.00,0.01,-0.04,0.04
31.043,-0.01,-0.00,-0.04,0.05
31.053,-0.02,0.00,-0.05,0.05
31.063,-0.01,0.01,-0.04,0.05
31.073,-0.01,-0.01,-0.05,0.05
31.083,0.00,0.01,-0.05,0.05
31.093,-0.00,0.01,-0.04,0.05
31.103,-0.01,0.01,-0.04,0.04
31.113,-0.01,-0.00,-0.03,0.04
31.123,0.01,0.00,-0.05,0.05
31.133,-0.01,-0.01,-0.05,0.05
31.144,-0.01,-0.01,-0.04,0.04
31.154,-0.01,0.00,-0.04,0.04
31.164,-0.00,-0.00,-0.04,0.04
31.174,0.00,-0.00,-0.02,0.02
31.184,-0.01,-0.00,-0.04,0.04
31.194,-0.01,0.00,-0.04,0.04
31.204,0.01,-0.01,-0.05,0.05
31.214,-0.01,-0.01,-0.05,0.05
31.224,-0.02,-0.00,-0.04,0.04
31.234,-0.01,0.00,-0.03,0.04
31.244,0.01,0.00,-0.03,0.03
31.254,0.00,-0.00,-0.03,0.03
31.265,-0.00,-0.01,-0.04,0.04
31.275,-0.01,0.01,-0.05,0.05
31.285,-0.01,-0.00,-0.06,0.06
31.295,-0.01,0.00,-0.06,0.06
31.305,-0.00,-0.01,-0.04,0.04
31.315,-0.02,-0.00,-0.04,0.05
31.325,-0.01,-0.00,-0.05,0.05
31.335,-0.00,-0.01,-0.05,0.05
31.345,0.00,0.00,-0.06,0.06
31.355,-0.01,-0.00,-0.04,0.04
31.365,-0.00,0.00,-0.04,0.04
31.375,-0.01,0.00,-0.04,0.04
31.386,0.00,-0.00,-0.04,0.04
31.395,-0.01,-0.01,-0.03,0.04
31.406,-0.00,0.01,-0.04,0.04
31.416,0.00,0.01,-0.04,0.04
31.426,-0.01,0.00,-0.05,0.05
31.436,-0.00,-0.00,-0.05,0.05
31.446,-0.01,0.00,-0.05,0.05
31.456,-0.00,0.00,-0.05,0.05
31.466,-0.01,-0.00,-0.05,0.05
31.476,-0.01,-0.00,-0.04,0.04
31.486,0.00,-0.01,-0.03,0.03
31.496,-0.01,0.00,-0.04,0.04
31.507,0.00,0.01,-0.05,0.05
31.516,0.00,0.01,-0.05,0.05
31.527,-0.01,-0.00,-0.04,0.04
31.537,0.01,0.00,-0.05,0.05
31.547,0.02,0.02,-0.05,0.06
31.557,-0.02,-0.00,-0.04,0.05
31.567,0.00,-0.01,-0.05,0.05
31.577,-0.00,0.00,-0.05,0.05
31.587,-0.01,0.01,-0.05,0.05
31.597,-0.00,0.00,-0.04,0.04
31.607,0.00,0.00,-0.04,0.04
31.617,-0.00,-0.01,-0.04,0.04
31.627,0.01,-0.00,-0.05,0.05
31.637,-0.00,0.01,-0.03,0.03
31.648,-0.00,0.00,-0.04,0.04
31.658,0.01,0.01,-0.04,0.04
31.668,0.01,-0.01,-0.05,0.05
31.678,-0.01,-0.00,-0.05,0.06
31.688,-0.01,-0.00,-0.04,0.05
31.698,-0.01,-0.01,-0.03,0.03
31.708,-0.01,0.01,-0.05,0.05
31.718,-0.00,-0.01,-0.03,0.04
31.728,-0.01,0.00,-0.04,0.04
31.738,-0.00,0.00,-0.04,0.04
31.748,0.00,0.00,-0.04,0.04
31.758,0.01,0.01,-0.05,0.05
31.769,-0.01,0.01,-0.04,0.05
31.779,-0.01,0.01,-0.05,0.06
31.789,-0.01,-0.01,-0.05,0.06
31.799,-0.02,0.02,-0.05,0.05
31.809,0.01,0.01,-0.05,0.05
31.819,0.01,-0.01,-0.04,0.04
31.829,-0.01,-0.00,-0.04,0.04
31.839,0.01,-0.00,-0.04,0.04
31.849,-0.00,-0.00,-0.06,0.06
31.859,-0.01,-0.02,-0.04,0.04
31.869,-0.00,-0.00,-0.04,0.04
31.879,-0.00,0.00,-0.05,0.05
31.890,-0.00,0.02,-0.03,0.03
31.900,-0.00,0.01,-0.05,0.05
31.910,0.01,-0.01,-0.05,0.05
31.920,0.02,0.00,-0.06,0.06
31.930,0.00,-0.00,-0.04,0.04
31.940,-0.02,-0.00,-0.05,0.06
31.950,-0.01,-0.00,-0.04,0.04
31.960,0.01,-0.01,-0.05,0.05
31.970,-0.00,0.00,-0.03,0.03
31.980,-0.01,0.01,-0.04,0.04
31.990,-0.01,-0.00,-0.03,0.04
32.000,0.00,-0.01,-0.07,0.07
32.011,0.01,-0.01,-0.05,0.05
32.021,0.01,0.01,-0.04,0.04
32.031,-0.00,0.01,-0.04,0.04
32.041,-0.00,0.01,-0.04,0.04
32.051,-0.01,0.01,-0.05,0.05
32.061,-0.01,0.01,-0.04,0.04
32.071,0.00,-0.02,-0.02,0.03
32.081,-0.01,0.01,-0.05,0.05
32.091,-0.01,0.01,-0.06,0.07
32.101,-0.01,0.02,-0.06,0.06
32.111,-0.00,0.00,-0.05,0.05
32.121,-0.01,0.00,-0.04,0.04
32.132,-0.01,0.00,-0.04,0.04
32.142,0.01,-0.01,-0.06,0.06
32.152,0.00,-0.00,-0.05,0.05
32.162,-0.01,-0.01,-0.05,0.05
32.172,-0.00,0.01,-0.05,0.05
32.182,0.01,0.01,-0.05,0.05
32.192,-0.01,0.01,-0.07,0.07
32.202,-0.00,-0.00,-0.04,0.04
32.212,0.00,0.01,-0.05,0.05
32.222,0.01,0.01,-0.06,0.06
32.232,-0.03,-0.01,-0.05,0.06
32.242,-0.02,0.01,-0.04,0.04
32.253,0.01,0.00,-0.04,0.04
32.263,-0.02,0.01,-0.05,0.06
32.273,0.01,0.01,-0.04,0.04
32.283,-0.01,0.00,-0.05,0.05
32.293,-0.00,0.01,-0.03,0.04
32.303,-0.00,-0.00,-0.05,0.05
32.313,0.00,-0.00,-0.05,0.05
32.323,-0.01,-0.01,-0.04,0.04
32.333,-0.01,0.00,-0.04,0.04
32.343,0.01,-0.01,-0.04,0.05
32.353,0.00,0.00,-0.05,0.05
32.363,0.00,0.01,-0.04,0.04
32.374,0.00,-0.01,-0.06,0.06
32.384,-0.01,-0.00,-0.04,0.04
32.394,0.00,-0.01,-0.04,0.04
32.404,0.00,-0.01,-0.04,0.04
32.414,-0.02,0.01,-0.05,0.05
32.424,-0.02,-0.00,-0.04,0.05
32.434,-0.01,-0.00,-0.06,0.06
32.444,-0.01,0.00,-0.04,0.04
32.454,-0.01,-0.01,-0.03,0.04
32.464,0.00,-0.01,-0.03,0.03
32.474,-0.01,-0.02,-0.05,0.05
32.484,-0.02,0.00,-0.06,0.06
32.495,-0.01,0.02,-0.04,0.04
32.505,-0.00,-0.00,-0.04,0.04
32.515,-0.00,-0.00,-0.04,0.04
32.525,-0.01,0.01,-0.05,0.05
32.535,-0.01,-0.01,-0.05,0.06
32.545,-0.00,0.01,-0.05,0.05
32.555,0.01,0.02,-0.04,0.05
32.565,0.01,-0.01,-0.05,0.05
32.575,0.01,0.00,-0.05,0.05
32.585,-0.01,-0.00,-0.05,0.05
32.595,-0.00,-0.02,-0.04,0.04
32.605,0.00,-0.00,-0.05,0.05
32.616,-0.01,-0.00,-0.05,0.05
32.626,-0.00,0.01,-0.04,0.05
32.636,0.00,0.01,-0.04,0.04
32.646,0.01,0.00,-0.05,0.05
32.656,-0.01,-0.01,-0.04,0.04
32.666,-0.01,0.00,-0.03,0.03
32.676,-0.01,-0.01,-0.05,0.05
32.686,-0.01,0.01,-0.04,0.04
32.696,-0.01,0.01,-0.04,0.05
32.706,0.00,-0.00,-0.05,0.05
32.717,-0.01,0.01,-0.05,0.05
32.726,-0.00,0.01,-0.06,0.06
32.737,-0.01,0.00,-0.05,0.05
32.747,-0.00,0.00,-0.04,0.04
32.757,-0.01,0.00,-0.04,0.04
32.767,-0.01,0.00,-0.06,0.06
32.777,-0.02,0.00,-0.05,0.05
32.787,-0.02,0.00,-0.04,0.05
32.797,-0.00,0.01,-0.06,0.06
32.807,-0.00,0.00,-0.04,0.04
32.817,-0.01,-0.00,-0.04,0.04
32.827,-0.02,0.01,-0.05,0.05
32.837,-0.02,0.01,-0.03,0.04
32.847,-0.01,0.01,-0.04,0.04
32.857,0.00,-0.01,-0.03,0.03
32.868,-0.00,0.01,-0.03,0.03
32.878,-0.00,-0.01,-0.06,0.06
32.888,-0.00,-0.01,-0.04,0.04
32.898,-0.00,-0.01,-0.05,0.05
32.908,-0.01,0.01,-0.04,0.04
32.918,-0.01,-0.00,-0.04,0.05
32.928,-0.01,0.01,-0.03,0.03
32.938,-0.01,0.00,-0.05,0.05
32.948,-0.00,-0.00,-0.05,0.05
32.958,-0.01,0.00,-0.04,0.05
32.968,-0.03,-0.01,-0.06,0.07
32.978,-0.01,-0.01,-0.06,0.06
32.988,0.00,0.00,-0.04,0.04
32.999,-0.01,0.00,-0.05,0.05
33.009,0.00,-0.00,-0.05,0.05
33.019,0.01,-0.00,-0.03,0.03
33.029,-0.01,-0.01,-0.05,0.05
33.039,-0.03,0.02,-0.05,0.06
33.049,-0.01,-0.00,-0.05,0.05
33.059,0.00,0.00,-0.05,0.05
33.069,0.01,-0.00,-0.05,0.05
33.079,-0.00,0.01,-0.05,0.05
33.089,0.01,-0.00,-0.06,0.06
33.100,-0.02,0.00,-0.04,0.04
33.109,-0.01,-0.00,-0.05,0.05
33.120,-0.01,0.01,-0.03,0.04
33.130,-0.01,0.02,-0.04,0.05
33.140,0.00,0.00,-0.04,0.04
33.150,-0.01,0.00,-0.05,0.05
33.160,-0.01,0.01,-0.05,0.05
33.170,-0.01,0.01,-0.04,0.04
33.180,0.01,0.01,-0.04,0.04
33.190,0.01,0.00,-0.05,0.05
33.200,0.00,0.00,-0.04,0.04
33.210,0.00,-0.00,-0.04,0.04
33.221,-0.00,0.00,-0.04,0.04
33.231,-0.01,0.00,-0.04,0.05
33.241,-0.01,0.01,-0.05,0.05
33.251,-0.01,-0.01,-0.05,0.05
33.261,-0.02,-0.00,-0.05,0.06
33.271,-0.01,-0.00,-0.04,0.04
33.281,-0.00,0.00,-0.05,0.05
33.291,-0.02,0.00,-0.06,0.06
33.301,-0.03,0.00,-0.03,0.04
33.311,-0.01,-0.00,-0.04,0.04
33.321,-0.00,-0.01,-0.04,0.04
33.331,-0.00,0.01,-0.05,0.05
33.341,0.01,0.01,-0.05,0.05
33.352,-0.00,-0.00,-0.06,0.06
33.362,0.00,0.01,-0.05,0.05
33.372,-0.00,0.00,-0.02,0.02
33.382,-0.00,-0.00,-0.05,0.05
33.392,-0.02,0.00,-0.04,0.05
33.402,-0.00,0.00,-0.04,0.04
33.412,-0.01,-0.00,-0.03,0.03
33.422,-0.01,0.00,-0.04,0.04
33.432,0.00,0.00,-0.05,0.05
33.442,0.01,0.01,-0.04,0.04
33.452,0.01,-0.00,-0.04,0.04
33.463,0.01,0.00,-0.05,0.05
33.473,-0.01,0.00,-0.05,0.05
33.483,-0.00,-0.00,-0.05,0.05
33.493,-0.01,-0.00,-0.06,0.06
33.503,0.00,-0.01,-0.06,0.06
33.513,-0.00,-0.00,-0.04,0.04
33.523,-0.00,0.01,-0.04,0.04
33.533,0.02,0.01,-0.05,0.05
33.543,-0.00,-0.00,-0.06,0.06
33.553,-0.02,-0.01,-0.06,0.06
33.563,-0.01,0.00,-0.04,0.04
33.573,-0.02,0.01,-0.04,0.05
33.584,-0.00,-0.01,-0.04,0.05
33.593,-0.00,-0.01,-0.06,0.06
33.604,0.01,0.00,-0.04,0.04
33.614,0.00,-0.00,-0.04,0.04
33.624,0.01,0.01,-0.05,0.05
33.634,-0.03,0.00,-0.04,0.05
33.644,-0.01,-0.00,-0.04,0.05
33.654,0.00,-0.00,-0.04,0.04
33.664,-0.02,-0.00,-0.06,0.06
33.674,-0.01,0.00,-0.05,0.05
33.684,-0.01,0.01,-0.04,0.04
33.694,-0.02,0.00,-0.04,0.04
33.705,-0.02,0.00,-0.04,0.05
33.714,-0.02,0.01,-0.04,0.05
33.725,0.00,0.00,-0.06,0.06
33.735,-0.02,0.01,-0.05,0.06
33.745,0.00,0.01,-0.04,0.05
33.755,-0.01,0.00,-0.05,0.06
33.765,-0.01,-0.00,-0.04,0.04
33.775,-0.02,0.02,-0.05,0.05
33.785,-0.00,0.01,-0.05,0.05
33.795,-0.00,0.02,-0.04,0.04
33.805,-0.01,0.02,-0.05,0.06
33.815,0.01,-0.00,-0.04,0.04
33.826,0.00,-0.00,-0.05,0.05
33.835,-0.00,0.01,-0.04,0.04
33.846,-0.00,0.00,-0.04,0.04
33.856,0.00,0.01,-0.05,0.05
33.866,0.00,0.00,-0.04,0.04
33.876,-0.01,0.01,-0.04,0.04
33.886,-0.01,0.00,-0.05,0.05
33.896,-0.01,-0.01,-0.04,0.05
33.906,-0.02,0.01,-0.03,0.04
33.916,-0.00,0.00,-0.03,0.03
33.926,-0.01,0.00,-0.05,0.05
33.936,0.00,0.01,-0.05,0.05
33.946,0.00,-0.00,-0.04,0.04
33.956,0.00,0.01,-0.03,0.03
33.967,-0.01,0.00,-0.04,0.05
33.977,-0.01,0.01,-0.04,0.04
33.987,-0.02,0.01,-0.05,0.05
33.997,-0.02,0.01,-0.05,0.05
34.007,-0.02,0.02,-0.03,0.04
34.017,0.01,0.01,-0.05,0.05
34.027,-0.01,0.00,-0.04,0.04
34.037,-0.01,0.00,-0.06,0.06
34.047,-0.02,-0.01,-0.04,0.05
34.057,-0.03,0.01,-0.05,0.06
34.068,0.01,-0.00,-0.04,0.04
34.077,0.01,-0.01,-0.02,0.03
34.088,0.01,0.00,-0.04,0.04
34.098,-0.01,0.00,-0.04,0.04
34.108,-0.01,0.00,-0.06,0.06
34.118,-0.00,0.00,-0.05,0.05
34.128,-0.00,0.01,-0.05,0.05
34.138,-0.02,0.01,-0.04,0.04
34.148,-0.02,0.01,-0.04,0.05
34.158,-0.01,0.00,-0.05,0.05
34.168,-0.01,0.00,-0.05,0.05
34.178,0.00,-0.01,-0.05,0.05
34.189,-0.02,-0.01,-0.05,0.05
34.199,-0.01,0.01,-0.04,0.04
34.209,0.00,-0.00,-0.05,0.05
34.219,-0.01,0.02,-0.05,0.06
34.229,-0.01,-0.00,-0.05,0.05
34.239,-0.01,-0.00,-0.04,0.04
34.249,0.00,-0.00,-0.04,0.04
34.259,-0.00,-0.00,-0.05,0.05
34.269,-0.01,-0.00,-0.04,0.04
34.279,0.00,0.01,-0.04,0.05
34.289,-0.01,-0.01,-0.05,0.05
34.299,0.00,-0.01,-0.04,0.04
34.309,0.01,0.00,-0.04,0.04
34.319,0.00,0.01,-0.04,0.04
34.330,-0.01,0.00,-0.04,0.05
34.339,-0.03,-0.00,-0.05,0.05
34.350,-0.01,-0.00,-0.03,0.04
34.360,-0.01,0.00,-0.06,0.06
34.370,-0.00,0.00,-0.04,0.04
34.380,-0.00,0.02,-0.04,0.05
34.390,0.01,0.01,-0.05,0.05
34.400,0.00,0.02,-0.03,0.04
34.410,0.00,0.01,-0.03,0.03
34.420,-0.01,0.01,-0.06,0.06
34.431,-0.01,-0.01,-0.06,0.06
34.441,-0.00,0.01,-0.06,0.06
34.451,-0.02,0.00,-0.04,0.05
34.461,0.01,0.01,-0.03,0.04
34.471,0.01,-0.00,-0.06,0.06
34.481,-0.00,-0.02,-0.05,0.05
34.491,0.02,0.01,-0.05,0.06
34.501,-0.00,0.01,-0.05,0.05
34.511,-0.01,0.00,-0.03,0.03
34.521,-0.01,-0.00,-0.04,0.04
34.531,-0.00,-0.00,-0.05,0.05
34.541,0.01,-0.00,-0.05,0.05
34.551,0.00,-0.00,-0.04,0.04
34.561,-0.01,0.01,-0.06,0.06
34.572,0.00,0.02,-0.05,0.06
34.582,-0.01,0.01,-0.04,0.05
34.592,-0.00,0.02,-0.04,0.05
34.602,-0.02,0.01,-0.03,0.04
34.612,0.00,-0.00,-0.05,0.05
34.622,0.01,0.01,-0.03,0.04
34.632,-0.00,0.01,-0.05,0.05
34.642,0.00,0.01,-0.03,0.03
34.652,0.00,0.01,-0.04,0.05
34.662,-0.01,0.01,-0.04,0.04
34.672,-0.02,0.02,-0.05,0.06
34.682,0.00,0.01,-0.05,0.05
34.693,-0.00,0.00,-0.05,0.05
34.702,-0.01,0.01,-0.04,0.04
34.713,-0.00,0.02,-0.05,0.05
34.723,-0.01,0.01,-0.05,0.05
34.733,-0.01,0.00,-0.05,0.05
34.743,-0.01,0.00,-0.05,0.05
34.753,-0.01,-0.00,-0.06,0.06
34.763,0.00,-0.00,-0.05,0.05
34.773,-0.00,-0.00,-0.06,0.06
34.783,-0.00,-0.01,-0.05,0.05
34.793,-0.02,-0.00,-0.05,0.05
34.803,0.00,0.01,-0.04,0.04
34.814,-0.01,-0.00,-0.03,0.03
34.824,-0.01,-0.01,-0.04,0.04
34.834,-0.02,-0.00,-0.05,0.05
34.844,-0.01,0.01,-0.03,0.03
34.854,0.01,0.00,-0.05,0.05
34.864,-0.02,0.01,-0.05,0.05
34.874,-0.01,0.01,-0.04,0.05
34.884,0.01,-0.00,-0.04,0.04
34.894,-0.01,-0.00,-0.07,0.07
34.904,0.01,0.00,-0.06,0.06
34.915,0.01,0.00,-0.05,0.05
34.924,-0.01,-0.01,-0.03,0.04
34.935,-0.01,-0.01,-0.06,0.07
34.945,-0.00,0.01,-0.03,0.03
34.955,0.00,0.00,-0.06,0.06
34.965,-0.01,0.00,-0.05,0.05
34.975,-0.00,0.01,-0.05,0.05
34.985,-0.00,-0.01,-0.06,0.06
34.995,0.00,-0.01,-0.05,0.05
35.005,-0.02,-0.01,-0.03,0.04
35.015,-0.02,-0.01,-0.04,0.05
35.025,-0.01,-0.00,-0.05,0.05
35.035,-0.01,-0.00,-0.05,0.05
35.045,0.00,-0.00,-0.03,0.03
35.056,-0.00,0.00,-0.03,0.03
35.065,-0.01,0.00,-0.03,0.03
35.076,-0.00,0.01,-0.04,0.05
35.086,0.01,-0.00,-0.04,0.04
35.096,-0.01,-0.00,-0.05,0.05
35.106,-0.01,0.00,-0.04,0.04
35.116,-0.02,0.00,-0.04,0.04
35.126,-0.03,0.00,-0.06,0.07
35.136,0.00,-0.00,-0.05,0.05
35.146,-0.00,0.01,-0.04,0.04
35.156,-0.01,-0.00,-0.04,0.05
35.167,0.01,0.01,-0.04,0.04
35.177,0.00,-0.02,-0.04,0.04
35.187,-0.00,-0.01,-0.05,0.05
35.197,-0.01,0.01,-0.05,0.05
35.207,-0.01,0.01,-0.05,0.05
35.217,-0.01,-0.00,-0.03,0.03
35.227,0.01,0.00,-0.04,0.04
35.237,0.00,0.01,-0.05,0.05
35.247,-0.00,-0.01,-0.04,0.04
35.257,-0.01,0.01,-0.02,0.03
35.267,-0.01,0.01,-0.05,0.05
35.277,-0.01,0.00,-0.05,0.05
35.287,-0.00,0.01,-0.04,0.04
35.298,-0.01,-0.01,-0.05,0.05
35.308,-0.02,0.00,-0.05,0.05
35.318,-0.01,-0.00,-0.05,0.06
35.328,0.00,0.01,-0.04,0.04
35.338,0.00,0.01,-0.04,0.04
35.348,-0.00,0.01,-0.04,0.04
35.358,-0.00,0.00,-0.04,0.04
35.368,0.00,0.00,-0.05,0.05
35.378,-0.02,-0.00,-0.04,0.05
35.388,-0.00,-0.01,-0.05,0.05
35.399,-0.00,0.01,-0.04,0.04
35.408,-0.00,0.00,-0.04,0.04
35.419,0.02,0.01,-0.05,0.05
35.428,-0.01,-0.00,-0.02,0.03
35.439,-0.01,0.01,-0.05,0.05
35.449,0.00,0.01,-0.04,0.04
35.459,0.01,0.02,-0.04,0.05
35.469,-0.01,-0.00,-0.04,0.05
35.479,0.00,0.00,-0.06,0.06
35.489,-0.02,0.00,-0.04,0.05
35.499,0.00,0.00,-0.05,0.05
35.509,-0.01,-0.01,-0.04,0.04
35.519,-0.01,-0.00,-0.04,0.04
35.529,-0.01,0.01,-0.06,0.06
35.540,-0.01,-0.00,-0.06,0.06
35.550,-0.02,0.01,-0.05,0.05
35.560,-0.01,0.00,-0.05,0.05
35.570,-0.01,0.00,-0.04,0.04
35.580,-0.01,-0.00,-0.04,0.04
35.590,-0.01,0.00,-0.04,0.04
35.600,-0.01,-0.00,-0.04,0.04
35.610,-0.01,0.01,-0.05,0.05
35.620,-0.01,0.01,-0.05,0.06
35.630,-0.00,0.03,-0.04,0.05
35.640,-0.00,0.02,-0.04,0.04
35.650,-0.01,0.01,-0.04,0.04
35.661,-0.01,0.01,-0.03,0.04
35.671,-0.00,0.00,-0.04,0.04
35.681,0.00,0.02,-0.05,0.05
35.691,-0.01,0.01,-0.05,0.05
35.701,0.00,-0.01,-0.05,0.05
35.711,-0.00,0.00,-0.04,0.04
35.721,-0.01,0.00,-0.05,0.05
35.731,-0.01,0.00,-0.05,0.05
35.741,-0.00,0.00,-0.04,0.04
35.751,-0.01,0.01,-0.04,0.04
35.761,-0.01,0.01,-0.06,0.06
35.771,0.01,-0.00,-0.05,0.05
35.782,-0.00,-0.00,-0.04,0.04
35.792,-0.01,-0.00,-0.04,0.04
35.802,-0.01,0.01,-0.04,0.04
35.812,-0.00,0.00,-0.04,0.04
35.822,-0.00,0.01,-0.05,0.05
35.832,-0.01,0.00,-0.05,0.05
35.842,-0.01,0.01,-0.05,0.06
35.852,-0.01,-0.00,-0.05,0.05
35.862,-0.01,-0.00,-0.05,0.05
35.872,-0.01,0.01,-0.05,0.05
35.882,-0.00,0.00,-0.06,0.06
35.892,0.00,-0.01,-0.05,0.05
35.902,-0.02,-0.00,-0.04,0.04
35.913,-0.01,0.00,-0.05,0.05
35.923,-0.00,0.00,-0.04,0.04
35.933,-0.01,0.00,-0.04,0.05
35.943,-0.01,-0.00,-0.05,0.05
35.953,-0.01,0.00,-0.04,0.04
35.963,-0.02,0.00,-0.03,0.04
35.973,-0.01,-0.00,-0.05,0.05
35.983,-0.01,0.00,-0.04,0.04
35.993,-0.01,0.02,-0.05,0.05
36.003,0.00,0.01,-0.04,0.04
36.013,-0.01,-0.00,-0.04,0.05
36.024,-0.00,0.01,-0.06,0.06
36.033,0.00,0.02,-0.05,0.05
36.044,0.01,0.01,-0.04,0.05
36.054,-0.00,0.00,-0.05,0.05
36.064,-0.00,0.00,-0.04,0.04
36.074,-0.00,-0.01,-0.05,0.05
36.084,-0.01,0.01,-0.05,0.05
36.094,0.00,0.00,-0.05,0.05
36.104,-0.02,0.00,-0.05,0.05
36.114,-0.00,0.02,-0.04,0.05
36.124,0.00,-0.00,-0.04,0.04
36.134,0.00,0.00,-0.06,0.06
36.145,-0.00,0.01,-0.05,0.05
36.154,-0.02,0.01,-0.04,0.05
36.165,-0.02,-0.01,-0.06,0.07
36.175,-0.01,-0.00,-0.05,0.05
36.185,-0.01,-0.00,-0.05,0.05
36.195,-0.01,-0.01,-0.04,0.04
36.205,-0.00,-0.00,-0.04,0.04
36.215,-0.00,-0.00,-0.04,0.04
36.225,0.01,-0.01,-0.05,0.05
36.235,-0.01,-0.01,-0.04,0.05
36.245,0.01,-0.00,-0.04,0.04
36.255,0.02,0.01,-0.05,0.05
36.266,0.00,0.01,-0.05,0.05
36.276,-0.01,-0.01,-0.06,0.06
36.286,-0.00,-0.01,-0.06,0.06
36.295,-0.02,-0.00,-0.04,0.05
36.306,-0.01,-0.00,-0.06,0.06
36.316,0.00,-0.00,-0.05,0.05
36.326,-0.01,0.01,-0.05,0.05
36.336,-0.01,-0.00,-0.04,0.04
36.346,-0.01,-0.01,-0.05,0.05
36.356,-0.01,-0.01,-0.05,0.06
36.366,-0.01,-0.00,-0.06,0.06
36.376,0.00,0.00,-0.04,0.05
36.387,-0.01,-0.01,-0.05,0.05
36.396,-0.02,-0.00,-0.05,0.05
36.407,-0.02,-0.00,-0.05,0.05
36.417,-0.01,0.00,-0.05,0.05
36.427,-0.01,-0.00,-0.03,0.03
36.437,-0.01,-0.00,-0.04,0.04
36.447,-0.00,0.01,-0.04,0.04
36.457,-0.01,0.00,-0.04,0.04
36.467,0.01,0.01,-0.04,0.04
36.477,-0.02,0.00,-0.05,0.05
36.487,-0.01,0.00,-0.04,0.04
36.497,0.00,-0.00,-0.06,0.06
36.507,0.01,-0.00,-0.04,0.04
36.518,-0.03,-0.01,-0.05,0.06
36.528,-0.01,-0.00,-0.04,0.05
36.538,-0.00,-0.01,-0.04,0.04
36.548,-0.01,0.01,-0.05,0.05
36.558,-0.00,-0.00,-0.04,0.05
36.568,-0.01,-0.00,-0.03,0.03
36.578,-0.00,0.01,-0.05,0.05
36.588,0.01,0.01,-0.05,0.06
36.598,-0.01,0.00,-0.04,0.05
36.608,-0.01,0.00,-0.05,0.05
36.618,0.00,0.01,-0.05,0.05
36.628,-0.02,0.00,-0.03,0.04
36.638,-0.01,0.00,-0.05,0.05
36.649,-0.01,0.01,-0.05,0.05
36.659,-0.02,-0.01,-0.04,0.05
36.669,-0.01,-0.01,-0.04,0.05
36.679,-0.03,0.01,-0.04,0.04
36.689,0.00,0.00,-0.03,0.03
36.699,0.01,0.01,-0.05,0.05
36.709,-0.01,-0.02,-0.04,0.04
36.719,-0.01,0.01,-0.04,0.04
36.729,0.00,0.02,-0.03,0.04
36.739,-0.01,0.00,-0.04,0.04
36.749,-0.01,-0.01,-0.03,0.04
36.759,-0.00,0.01,-0.05,0.05
36.770,-0.02,0.01,-0.05,0.05
36.779,-0.01,0.00,-0.05,0.05
36.790,0.00,-0.01,-0.05,0.05
36.800,-0.01,0.01,-0.05,0.05
36.810,-0.00,-0.01,-0.05,0.05
36.820,0.00,-0.00,-0.04,0.04
36.830,-0.00,-0.00,-0.05,0.05
36.840,0.00,0.00,-0.06,0.06
36.850,-0.00,0.00,-0.05,0.05
36.860,-0.01,0.01,-0.05,0.05
36.870,0.00,-0.01,-0.05,0.05
36.881,-0.01,-0.00,-0.04,0.04
36.891,-0.01,-0.00,-0.04,0.04
36.901,-0.00,0.00,-0.05,0.05
36.911,-0.01,0.00,-0.04,0.04
36.921,0.00,0.00,-0.03,0.03
36.931,-0.01,0.00,-0.04,0.05
36.941,-0.00,0.01,-0.04,0.04
36.951,-0.02,-0.01,-0.05,0.05
36.961,-0.01,-0.00,-0.05,0.05
36.971,-0.01,0.01,-0.05,0.05
36.981,-0.02,0.01,-0.06,0.06
36.991,-0.01,-0.00,-0.05,0.05
37.001,-0.01,0.01,-0.05,0.05
37.012,-0.02,0.01,-0.04,0.05
37.022,-0.02,0.01,-0.03,0.04
37.032,-0.02,0.01,-0.05,0.05
37.042,-0.01,-0.00,-0.05,0.05
37.052,-0.02,0.00,-0.05,0.05
37.062,-0.01,-0.00,-0.04,0.05
37.072,-0.01,0.00,-0.04,0.04
37.082,-0.02,0.02,-0.05,0.05
37.092,-0.01,0.01,-0.04,0.04
37.102,-0.02,-0.01,-0.04,0.05
37.113,-0.03,-0.00,-0.05,0.06
37.123,-0.01,-0.00,-0.04,0.04
37.133,-0.01,0.01,-0.05,0.05
37.143,-0.01,0.00,-0.05,0.05
37.153,-0.01,-0.01,-0.05,0.05
37.163,-0.02,-0.00,-0.04,0.05
37.173,-0.02,-0.00,-0.04,0.04
37.183,-0.02,0.01,-0.05,0.05
37.193,-0.01,0.00,-0.04,0.04
37.203,-0.02,0.01,-0.05,0.06
37.213,-0.02,0.01,-0.05,0.06
37.223,-0.02,-0.01,-0.04,0.05
37.233,-0.02,0.00,-0.04,0.04
37.243,-0.02,0.00,-0.04,0.05
37.254,-0.02,-0.01,-0.04,0.05
37.264,-0.02,0.00,-0.05,0.05
37.274,-0.03,0.00,-0.06,0.07
37.284,-0.02,0.01,-0.04,0.04
37.294,-0.01,-0.01,-0.03,0.04
37.304,-0.02,0.01,-0.05,0.05
37.314,-0.01,0.01,-0.03,0.03
37.324,-0.03,-0.00,-0.04,0.05
37.334,-0.01,-0.00,-0.05,0.06
37.344,-0.03,-0.00,-0.04,0.05
37.354,-0.02,-0.01,-0.03,0.04
37.364,-0.00,0.00,-0.05,0.05
37.375,-0.02,-0.01,-0.06,0.06
37.385,-0.01,0.01,-0.05,0.05
37.395,-0.01,-0.01,-0.05,0.05
37.405,-0.02,-0.00,-0.06,0.06
37.415,-0.04,0.00,-0.05,0.06
37.425,-0.02,-0.00,-0.04,0.05
37.435,-0.02,-0.00,-0.05,0.05
37.445,-0.01,-0.01,-0.05,0.05
37.455,-0.01,0.01,-0.05,0.05
37.465,-0.01,0.01,-0.04,0.05
37.475,-0.02,-0.01,-0.05,0.06
37.485,-0.02,0.00,-0.05,0.05
37.496,-0.02,0.01,-0.03,0.04
37.506,-0.02,-0.00,-0.05,0.05
37.516,-0.01,0.01,-0.06,0.07
37.526,-0.01,-0.00,-0.05,0.05
37.536,-0.02,0.01,-0.04,0.04
37.546,-0.02,-0.01,-0.05,0.06
37.556,-0.02,0.00,-0.04,0.05
37.566,-0.01,0.00,-0.04,0.04
37.576,-0.01,-0.01,-0.04,0.05
37.586,-0.01,-0.00,-0.05,0.05
37.596,-0.01,0.02,-0.05,0.05
37.606,-0.01,0.01,-0.05,0.05
37.617,-0.01,0.01,-0.05,0.05
37.627,-0.01,-0.01,-0.05,0.05
37.637,-0.02,-0.01,-0.05,0.05
37.647,-0.02,-0.00,-0.05,0.05
37.657,-0.02,0.01,-0.04,0.05
37.667,-0.01,0.01,-0.04,0.04
37.677,0.00,0.01,-0.04,0.04
37.687,-0.00,-0.02,-0.06,0.06
37.697,-0.01,-0.01,-0.05,0.05
37.707,-0.01,0.02,-0.03,0.04
37.717,-0.02,0.01,-0.06,0.07
37.727,-0.01,0.01,-0.05,0.05
37.738,-0.01,-0.00,-0.03,0.03
37.748,-0.01,0.00,-0.04,0.05
37.758,-0.01,-0.00,-0.05,0.05
37.768,-0.01,-0.00,-0.05,0.05
37.778,-0.02,-0.01,-0.04,0.05
37.788,-0.04,-0.01,-0.04,0.05
37.798,-0.03,0.01,-0.05,0.06
37.808,-0.01,-0.00,-0.04,0.04
37.818,-0.02,0.01,-0.04,0.05
37.828,-0.02,-0.01,-0.04,0.04
37.838,-0.01,0.01,-0.04,0.04
37.849,-0.00,0.01,-0.05,0.05
37.859,-0.02,0.00,-0.04,0.04
37.869,-0.02,0.01,-0.05,0.05
37.879,-0.01,-0.00,-0.05,0.05
37.889,-0.02,-0.00,-0.04,0.04
37.899,-0.03,0.01,-0.05,0.05
37.909,-0.00,-0.00,-0.04,0.04
37.919,-0.03,-0.00,-0.05,0.05
37.929,-0.01,-0.00,-0.05,0.05
37.939,-0.01,-0.00,-0.06,0.06
37.949,-0.01,-0.00,-0.03,0.03
37.959,-0.01,0.00,-0.05,0.05
37.969,-0.03,-0.01,-0.04,0.05
37.979,-0.01,0.00,-0.05,0.05
37.990,-0.01,-0.00,-0.05,0.05
38.000,-0.01,0.01,-0.04,0.04
38.010,-0.01,0.00,-0.05,0.05
38.020,-0.02,-0.01,-0.05,0.05
38.030,-0.01,0.00,-0.05,0.05
38.040,-0.01,0.01,-0.04,0.05
38.050,-0.02,0.01,-0.05,0.06
38.060,-0.01,0.02,-0.05,0.05
38.070,-0.02,0.01,-0.05,0.05
38.081,-0.02,0.00,-0.04,0.05
38.090,-0.01,0.00,-0.04,0.04
38.101,-0.02,0.01,-0.04,0.05
38.111,-0.01,-0.00,-0.06,0.06
38.121,-0.02,0.00,-0.06,0.06
38.131,-0.02,0.01,-0.05,0.05
38.141,-0.02,0.01,-0.07,0.07
38.151,-0.02,0.01,-0.05,0.05
38.161,-0.02,0.01,-0.04,0.04
38.171,0.01,-0.01,-0.05,0.05
38.181,0.00,-0.00,-0.06,0.06
38.191,-0.03,0.00,-0.04,0.05
38.201,-0.02,-0.00,-0.05,0.05
38.211,-0.01,0.01,-0.06,0.06
38.222,-0.01,-0.01,-0.05,0.05
38.231,-0.03,-0.00,-0.04,0.05
38.242,-0.02,0.00,-0.04,0.05
38.252,-0.01,0.01,-0.03,0.04
38.262,-0.02,0.00,-0.04,0.04
38.272,-0.01,0.00,-0.05,0.05
38.282,-0.01,0.00,-0.05,0.05
38.292,-0.02,-0.01,-0.04,0.05
38.302,-0.02,-0.02,-0.04,0.05
38.312,-0.01,-0.00,-0.06,0.06
38.322,-0.03,-0.00,-0.04,0.05
38.332,-0.01,-0.00,-0.05,0.05
38.342,-0.02,-0.00,-0.03,0.04
38.353,-0.02,-0.01,-0.06,0.06
38.363,-0.00,-0.00,-0.04,0.04
38.373,-0.03,-0.00,-0.05,0.06
38.383,-0.02,-0.00,-0.06,0.06
38.393,-0.01,0.01,-0.05,0.05
38.403,-0.02,0.01,-0.05,0.05
38.413,-0.04,0.00,-0.04,0.06
38.423,-0.02,0.01,-0.03,0.04
38.433,-0.02,-0.01,-0.04,0.05
38.443,-0.02,-0.01,-0.05,0.05
38.453,-0.02,-0.00,-0.06,0.06
38.464,-0.02,-0.01,-0.06,0.06
38.473,-0.03,-0.01,-0.03,0.05
38.484,-0.01,0.01,-0.03,0.04
38.494,-0.00,0.01,-0.04,0.04
38.504,-0.02,-0.00,-0.05,0.05
38.514,-0.01,0.01,-0.06,0.06
38.524,-0.01,-0.00,-0.05,0.05
38.534,-0.02,0.00,-0.03,0.03
38.544,-0.01,0.00,-0.04,0.04
38.554,-0.01,-0.00,-0.05,0.05
38.564,-0.03,0.01,-0.05,0.06
38.574,0.00,-0.01,-0.06,0.06
38.584,0.00,-0.00,-0.05,0.05
38.594,-0.00,0.01,-0.05,0.05
38.605,-0.01,0.01,-0.04,0.04
38.615,-0.01,-0.01,-0.04,0.04
38.625,-0.02,0.01,-0.04,0.05
38.635,-0.01,0.00,-0.04,0.04
38.645,0.00,-0.00,-0.03,0.03
38.655,-0.02,-0.01,-0.04,0.05
38.665,-0.03,-0.02,-0.05,0.06
38.675,-0.02,-0.00,-0.04,0.05
38.686,-0.01,0.00,-0.02,0.03
38.695,-0.00,-0.00,-0.04,0.04
38.705,-0.00,0.01,-0.05,0.05
38.716,-0.02,0.01,-0.05,0.06
38.726,0.00,0.01,-0.05,0.05
38.736,-0.01,-0.00,-0.05,0.05
38.746,-0.01,0.00,-0.06,0.06
38.756,-0.02,0.01,-0.04,0.05
38.766,-0.00,0.01,-0.04,0.05
38.776,0.00,-0.01,-0.06,0.06
38.786,-0.01,-0.01,-0.05,0.05
38.796,-0.03,-0.01,-0.06,0.07
38.806,-0.02,-0.01,-0.04,0.04
38.816,-0.03,-0.01,-0.04,0.05
38.826,-0.01,-0.00,-0.05,0.06
38.836,-0.01,0.01,-0.06,0.06
38.847,-0.02,-0.00,-0.05,0.05
38.857,-0.01,-0.01,-0.04,0.04
38.867,-0.01,0.00,-0.05,0.05
38.877,-0.01,-0.00,-0.04,0.04
38.887,-0.03,0.01,-0.04,0.05
38.897,-0.03,0.00,-0.06,0.07
38.907,-0.01,-0.02,-0.05,0.06
38.917,-0.02,-0.02,-0.04,0.05
38.927,-0.01,-0.01,-0.04,0.04
38.937,-0.02,0.00,-0.04,0.05
38.948,0.01,0.00,-0.05,0.05
38.957,-0.01,0.01,-0.04,0.04
38.968,-0.02,0.01,-0.04,0.05
38.978,-0.02,-0.01,-0.03,0.04
38.988,-0.02,-0.01,-0.06,0.06
38.998,-0.01,-0.01,-0.05,0.05
39.008,-0.02,0.01,-0.03,0.04
39.018,-0.01,0.01,-0.05,0.05
39.028,-0.02,-0.00,-0.06,0.06
39.038,-0.02,-0.01,-0.06,0.06
39.048,-0.01,0.00,-0.03,0.04
39.058,-0.02,-0.01,-0.04,0.04
39.069,-0.01,0.01,-0.06,0.06
39.079,0.01,0.01,-0.05,0.05
39.089,-0.01,0.01,-0.05,0.05
39.099,-0.02,-0.01,-0.04,0.05
39.109,-0.00,-0.01,-0.03,0.03
39.119,-0.00,0.00,-0.05,0.05
39.129,-0.01,0.01,-0.04,0.04
39.139,-0.01,-0.00,-0.05,0.05
39.149,-0.01,-0.00,-0.05,0.05
39.159,-0.00,-0.00,-0.04,0.04
39.169,-0.01,0.01,-0.04,0.05
39.179,-0.02,-0.01,-0.06,0.06
39.189,-0.02,-0.01,-0.04,0.05
39.199,-0.01,0.00,-0.04,0.04
39.210,-0.02,0.00,-0.03,0.04
39.220,0.00,-0.01,-0.05,0.05
39.230,-0.01,0.00,-0.04,0.05
39.240,-0.01,-0.01,-0.04,0.04
39.250,-0.02,-0.02,-0.04,0.05
39.260,-0.02,0.00,-0.06,0.06
39.270,-0.01,0.00,-0.04,0.04
39.280,-0.01,-0.00,-0.05,0.05
39.290,-0.01,0.01,-0.04,0.05
39.300,-0.02,0.00,-0.06,0.06
39.310,-0.01,0.00,-0.04,0.04
39.320,-0.02,-0.00,-0.04,0.05
39.331,0.00,0.00,-0.04,0.04
39.341,-0.01,-0.01,-0.03,0.03
39.351,-0.02,0.00,-0.05,0.05
39.361,-0.02,-0.01,-0.07,0.07
39.371,-0.02,-0.00,-0.04,0.05
39.381,-0.01,-0.00,-0.04,0.04
39.391,-0.01,0.00,-0.05,0.05
39.401,0.00,0.00,-0.06,0.06
39.411,0.00,0.00,-0.05,0.05
39.421,-0.01,0.00,-0.05,0.06
39.432,-0.01,-0.01,-0.06,0.06
39.441,-0.01,-0.01,-0.05,0.05
39.452,-0.01,0.00,-0.05,0.05
39.462,0.00,0.00,-0.04,0.04
39.472,-0.01,-0.01,-0.04,0.04
39.482,-0.01,-0.01,-0.04,0.04
39.492,-0.00,0.00,-0.04,0.04
39.502,-0.01,0.00,-0.05,0.05
39.512,-0.00,0.00,-0.04,0.04
39.522,-0.00,0.00,-0.05,0.05
39.532,-0.00,0.00,-0.04,0.04
39.542,-0.02,0.01,-0.05,0.05
39.553,-0.00,0.00,-0.05,0.05
39.562,-0.02,0.01,-0.04,0.04
39.573,-0.02,-0.01,-0.04,0.05
39.583,-0.01,-0.00,-0.05,0.05
39.593,-0.00,-0.00,-0.05,0.05
39.603,-0.01,-0.01,-0.06,0.06
39.613,-0.01,-0.01,-0.05,0.05
39.623,-0.01,0.00,-0.04,0.05
39.633,-0.01,-0.00,-0.04,0.04
39.643,-0.01,0.00,-0.04,0.04
39.653,-0.01,-0.01,-0.05,0.05
39.663,-0.01,-0.01,-0.05,0.05
39.673,-0.02,-0.01,-0.05,0.05
39.684,-0.00,-0.01,-0.05,0.05
39.694,-0.02,0.01,-0.05,0.05
39.704,-0.02,-0.00,-0.04,0.04
39.714,-0.01,-0.00,-0.04,0.04
39.724,-0.02,-0.01,-0.05,0.05
39.734,-0.02,-0.00,-0.03,0.03
39.744,-0.00,0.01,-0.05,0.05
39.754,-0.01,-0.00,-0.06,0.06
39.764,0.01,-0.00,-0.04,0.04
39.774,-0.01,-0.00,-0.04,0.04
39.785,-0.00,0.01,-0.04,0.04
39.795,-0.00,0.00,-0.04,0.04
39.805,0.01,-0.00,-0.04,0.04
39.815,-0.01,0.00,-0.03,0.03
39.825,-0.02,-0.00,-0.04,0.05
39.835,-0.02,-0.00,-0.03,0.04
39.845,-0.02,-0.00,-0.04,0.04
39.855,-0.01,-0.01,-0.05,0.06
39.865,-0.01,0.00,-0.03,0.04
39.875,-0.01,0.00,-0.05,0.05
39.885,-0.01,-0.00,-0.06,0.06
39.895,-0.01,-0.01,-0.05,0.05
39.905,-0.02,0.00,-0.05,0.05
39.916,-0.00,-0.02,-0.04,0.04
39.925,0.00,-0.01,-0.04,0.04
39.936,-0.01,-0.01,-0.03,0.04
39.945,-0.02,0.00,-0.04,0.05
39.956,-0.02,-0.01,-0.04,0.05
39.966,-0.00,-0.01,-0.05,0.05
39.976,-0.01,-0.01,-0.04,0.04
39.986,-0.01,0.01,-0.05,0.05
39.996,-0.01,0.00,-0.05,0.05
40.006,-0.03,-0.00,-0.04,0.05
40.016,-0.02,-0.00,-0.05,0.06
40.026,-0.01,-0.01,-0.05,0.05
40.036,-0.02,-0.01,-0.05,0.06
40.046,-0.02,-0.00,-0.04,0.05
40.057,-0.00,-0.00,-0.04,0.04
40.067,-0.02,0.00,-0.05,0.05
40.077,-0.01,-0.00,-0.04,0.04
40.087,-0.01,-0.01,-0.04,0.04
40.097,-0.02,-0.01,-0.04,0.05
40.107,-0.01,0.01,-0.05,0.05
40.117,-0.02,0.00,-0.04,0.05
40.127,-0.03,-0.00,-0.05,0.05
40.137,-0.02,-0.00,-0.05,0.05
40.147,-0.00,0.01,-0.06,0.06
40.158,-0.01,-0.00,-0.05,0.05
40.167,-0.01,-0.00,-0.05,0.05
40.178,-0.02,-0.00,-0.05,0.05
40.188,-0.01,0.00,-0.05,0.05
40.198,-0.00,0.00,-0.05,0.05
40.208,-0.01,-0.00,-0.05,0.05
40.218,-0.01,0.01,-0.05,0.05
40.228,-0.02,-0.00,-0.05,0.05
40.238,0.00,0.00,-0.05,0.05
40.248,-0.03,-0.00,-0.04,0.04
40.258,-0.01,-0.01,-0.04,0.04
40.268,-0.02,0.01,-0.05,0.05
40.278,-0.01,-0.01,-0.06,0.06
40.288,-0.00,0.01,-0.05,0.06
40.299,-0.01,-0.00,-0.05,0.05
40.309,-0.01,0.00,-0.04,0.04
40.319,-0.01,0.00,-0.03,0.04
40.329,-0.02,-0.01,-0.04,0.05
40.339,-0.02,-0.00,-0.04,0.04
40.349,-0.01,0.00,-0.04,0.04
40.359,-0.00,0.02,-0.03,0.03
40.369,-0.01,-0.01,-0.04,0.04
40.379,0.00,-0.01,-0.04,0.05
40.389,-0.02,-0.00,-0.04,0.04
40.399,-0.01,0.01,-0.05,0.05
40.409,-0.01,-0.01,-0.04,0.04
40.420,-0.02,-0.01,-0.04,0.05
40.430,-0.02,-0.00,-0.05,0.05
40.440,-0.02,-0.01,-0.05,0.05
40.450,-0.01,0.01,-0.06,0.06
40.460,-0.02,0.01,-0.04,0.05
40.470,-0.02,-0.01,-0.05,0.05
40.480,-0.02,-0.01,-0.05,0.05
40.490,-0.01,-0.00,-0.04,0.04
40.500,-0.01,-0.01,-0.04,0.04
40.510,-0.01,-0.00,-0.04,0.04
40.520,0.00,0.00,-0.04,0.04
40.530,-0.02,-0.00,-0.04,0.05
40.541,0.00,-0.01,-0.04,0.04
40.550,-0.02,-0.00,-0.04,0.05
40.561,0.01,-0.00,-0.05,0.05
40.571,-0.01,-0.01,-0.05,0.05
40.581,-0.00,-0.01,-0.04,0.05
40.591,-0.01,0.01,-0.05,0.05
40.601,-0.02,-0.01,-0.03,0.04
40.611,-0.00,0.00,-0.03,0.03
40.621,0.01,-0.01,-0.05,0.05
40.631,-0.01,0.01,-0.04,0.05
40.641,-0.02,-0.00,-0.06,0.06
40.652,-0.01,0.00,-0.05,0.05
40.662,-0.03,0.00,-0.03,0.04
40.672,0.00,0.01,-0.06,0.06
40.682,-0.00,0.01,-0.05,0.05
40.692,-0.01,0.00,-0.06,0.06
40.702,-0.02,0.00,-0.04,0.04
40.712,-0.02,-0.00,-0.03,0.04
40.722,-0.01,0.00,-0.05,0.05
40.732,-0.01,0.01,-0.05,0.05
40.742,-0.01,0.01,-0.05,0.05
40.752,-0.00,-0.01,-0.04,0.05
40.762,-0.01,0.01,-0.04,0.05
40.772,-0.02,-0.00,-0.05,0.05
40.783,-0.01,0.00,-0.05,0.05
40.793,-0.02,-0.02,-0.03,0.04
40.803,-0.02,-0.01,-0.05,0.06
40.813,0.01,0.00,-0.04,0.05
40.823,-0.02,-0.01,-0.04,0.04
40.833,-0.00,-0.01,-0.05,0.05
40.843,-0.00,0.00,-0.05,0.05
40.853,-0.01,-0.00,-0.05,0.05
40.863,-0.01,-0.02,-0.05,0.06
40.873,-0.00,-0.01,-0.04,0.04
40.883,-0.01,-0.01,-0.05,0.05
40.893,-0.02,-0.01,-0.05,0.05
40.904,-0.01,0.00,-0.05,0.06
40.914,-0.01,-0.01,-0.05,0.05
40.924,-0.02,-0.00,-0.06,0.06
40.934,-0.01,0.00,-0.05,0.05
40.944,-0.00,-0.00,-0.04,0.04
40.954,-0.00,0.00,-0.05,0.05
40.964,-0.01,0.01,-0.05,0.05
40.974,0.00,-0.01,-0.06,0.06
40.984,-0.00,-0.00,-0.06,0.06
40.994,-0.02,-0.00,-0.05,0.05
41.004,-0.02,-0.01,-0.06,0.06
41.014,-0.01,0.01,-0.05,0.06
41.025,-0.02,-0.01,-0.06,0.06
41.035,-0.01,0.00,-0.04,0.04
41.045,-0.02,-0.00,-0.05,0.05
41.055,-0.01,0.00,-0.05,0.05
41.065,-0.02,0.01,-0.04,0.05
41.075,-0.02,-0.02,-0.05,0.05
41.085,-0.00,0.01,-0.06,0.06
41.095,-0.01,0.02,-0.05,0.06
41.105,-0.01,0.01,-0.04,0.04
41.115,-0.03,0.01,-0.04,0.05
41.125,-0.03,0.00,-0.04,0.05
41.135,-0.00,0.00,-0.03,0.03
41.146,-0.01,-0.01,-0.06,0.06
41.156,-0.01,0.00,-0.05,0.05
41.166,-0.02,-0.00,-0.04,0.04
41.176,-0.01,-0.01,-0.04,0.05
41.186,-0.02,-0.01,-0.05,0.05
41.196,-0.02,-0.00,-0.04,0.04
41.206,-0.01,-0.00,-0.05,0.05
41.216,-0.01,0.01,-0.05,0.05
41.226,-0.00,0.00,-0.05,0.05
41.236,0.00,0.01,-0.05,0.05
41.247,-0.01,-0.01,-0.03,0.03
41.256,0.00,-0.01,-0.05,0.05
41.267,0.01,-0.00,-0.03,0.03
41.277,-0.00,0.01,-0.04,0.04
41.287,-0.02,0.01,-0.05,0.06
41.297,-0.01,0.00,-0.05,0.05
41.307,-0.02,-0.00,-0.04,0.05
41.317,0.00,-0.00,-0.05,0.05
41.327,-0.01,-0.01,-0.04,0.04
41.337,0.01,-0.01,-0.05,0.05
41.347,-0.02,-0.01,-0.03,0.04
41.357,-0.01,-0.00,-0.05,0.05
41.367,-0.01,0.00,-0.04,0.04
41.377,-0.01,-0.00,-0.04,0.05
41.388,-0.00,0.00,-0.05,0.05
41.398,-0.02,-0.01,-0.03,0.04
41.408,-0.01,0.00,-0.03,0.03
41.418,-0.02,0.00,-0.04,0.04
41.428,-0.01,-0.00,-0.04,0.04
41.438,-0.01,-0.00,-0.04,0.05
41.448,-0.01,-0.01,-0.05,0.05
41.458,-0.00,-0.01,-0.06,0.06
41.468,0.00,-0.00,-0.05,0.05
41.478,-0.02,-0.01,-0.04,0.04
41.488,-0.01,-0.00,-0.05,0.05
41.499,-0.00,0.00,-0.04,0.04
41.508,-0.01,-0.01,-0.06,0.06
41.519,-0.01,-0.01,-0.05,0.05
41.529,-0.01,-0.01,-0.06,0.06
41.539,-0.01,0.00,-0.06,0.06
41.549,-0.02,-0.00,-0.04,0.05
41.559,-0.03,-0.00,-0.05,0.06
41.569,-0.01,-0.01,-0.06,0.06
41.579,-0.01,-0.00,-0.04,0.04
41.589,-0.02,0.01,-0.05,0.05
41.599,-0.02,0.00,-0.06,0.07
41.609,0.00,-0.00,-0.06,0.06
41.619,-0.00,-0.01,-0.05,0.05
41.630,-0.01,-0.01,-0.04,0.04
41.639,-0.02,-0.00,-0.05,0.06
41.650,-0.02,0.00,-0.05,0.05
41.660,-0.01,-0.00,-0.04,0.04
41.670,-0.01,-0.00,-0.06,0.06
