time,ax,ay,az,atotal
0.000,-0.18,-0.67,-0.18,0.72
0.010,-0.07,-0.65,0.51,0.83
0.020,0.11,-0.71,1.16,1.36
0.030,0.41,-0.88,1.37,1.68
0.040,0.42,-1.13,1.55,1.96
0.050,0.18,-1.15,1.81,2.15
0.060,0.10,-1.21,1.76,2.14
0.071,0.04,-1.32,1.26,1.83
0.081,-0.15,-1.09,0.57,1.23
0.091,-0.45,-0.82,0.03,0.93
0.101,-0.64,-0.76,-0.27,1.03
0.111,-0.73,-0.79,-0.29,1.12
0.121,-0.78,-0.86,-0.04,1.16
0.131,-0.80,-0.96,0.32,1.28
0.141,-0.78,-1.09,0.52,1.44
0.152,-0.79,-1.17,0.60,1.54
0.161,-0.80,-1.23,0.59,1.58
0.171,-0.76,-1.26,0.49,1.55
0.181,-0.79,-1.25,0.35,1.52
0.191,-0.71,-1.12,0.33,1.36
0.201,-0.48,-0.97,0.27,1.12
0.212,-0.41,-0.88,0.21,0.99
0.222,-0.36,-0.76,0.12,0.85
0.232,-0.30,-0.60,-0.01,0.67
0.242,-0.22,-0.51,-0.16,0.58
0.252,-0.22,-0.42,-0.31,0.57
0.262,-0.30,-0.37,-0.51,0.69
0.272,-0.38,-0.33,-0.68,0.84
0.282,-0.34,-0.21,-0.75,0.85
0.292,-0.34,-0.12,-0.64,0.74
0.302,-0.44,-0.22,-0.36,0.61
0.312,-0.47,-0.34,0.01,0.58
0.323,-0.39,-0.35,0.41,0.67
0.333,-0.22,-0.25,0.63,0.72
0.343,-0.07,-0.05,0.58,0.58
0.353,-0.06,0.20,0.36,0.42
0.363,-0.09,0.43,0.14,0.47
0.373,-0.15,0.54,0.06,0.57
0.383,-0.29,0.50,0.01,0.57
0.393,-0.56,0.43,0.05,0.71
0.403,-0.80,0.34,0.02,0.87
0.413,-0.92,0.20,-0.08,0.95
0.423,-0.99,0.11,-0.11,1.00
0.434,-1.04,0.11,-0.11,1.05
0.443,-0.90,0.12,-0.06,0.91
0.454,-0.64,0.15,-0.04,0.66
0.464,-0.37,0.31,-0.19,0.51
0.474,-0.21,0.49,-0.39,0.66
0.484,-0.06,0.64,-0.60,0.88
0.494,0.10,0.74,-0.74,1.05
0.504,0.15,0.73,-0.75,1.06
0.514,0.06,0.62,-0.61,0.87
0.524,-0.02,0.49,-0.33,0.59
0.534,-0.06,0.36,-0.01,0.36
0.544,-0.08,0.24,0.26,0.36
0.554,-0.07,0.21,0.43,0.48
0.564,0.01,0.24,0.49,0.55
0.575,0.22,0.35,0.49,0.65
0.585,0.37,0.43,0.43,0.71
0.595,0.39,0.40,0.37,0.67
0.605,0.36,0.35,0.33,0.60
0.615,0.38,0.30,0.29,0.57
0.625,0.39,0.22,0.18,0.48
0.635,0.28,0.13,0.11,0.33
0.645,0.19,0.08,0.03,0.21
0.655,0.17,-0.03,-0.03,0.17
0.665,0.10,-0.14,0.06,0.18
0.675,0.13,-0.19,0.12,0.26
0.685,0.23,-0.17,0.23,0.37
0.695,0.47,-0.05,0.29,0.56
0.706,0.66,0.01,0.17,0.68
0.716,0.70,0.01,0.14,0.71
0.726,0.60,0.01,0.19,0.63
0.736,0.50,-0.07,0.14,0.53
0.746,0.45,-0.10,0.09,0.47
0.756,0.26,-0.17,-0.02,0.32
0.766,-0.01,-0.30,-0.04,0.30
0.776,-0.25,-0.35,0.08,0.44
0.786,-0.39,-0.43,0.14,0.59
0.796,-0.45,-0.55,0.24,0.75
0.806,-0.48,-0.57,0.39,0.84
0.816,-0.33,-0.71,0.38,0.87
0.826,-0.25,-0.87,0.24,0.93
0.837,-0.27,-0.86,0.25,0.93
0.846,-0.22,-0.77,0.10,0.81
0.857,-0.22,-0.66,-0.06,0.70
0.867,-0.36,-0.52,-0.08,0.64
0.877,-0.50,-0.39,0.01,0.64
0.887,-0.51,-0.29,0.30,0.66
0.897,-0.40,-0.32,0.69,0.86
0.907,-0.28,-0.45,0.92,1.06
0.917,-0.12,-0.62,0.92,1.12
0.927,-0.03,-0.78,0.75,1.09
0.937,-0.13,-0.86,0.52,1.01
0.947,-0.20,-0.72,0.52,0.91
0.958,-0.10,-0.57,0.64,0.86
0.968,-0.03,-0.59,0.55,0.81
0.978,-0.16,-0.61,0.40,0.74
0.988,-0.42,-0.60,0.27,0.78
0.998,-0.63,-0.56,0.16,0.86
1.008,-0.80,-0.51,0.01,0.95
1.018,-0.78,-0.56,-0.19,0.98
1.028,-0.55,-0.58,-0.37,0.89
1.038,-0.34,-0.47,-0.52,0.78
1.048,-0.24,-0.35,-0.58,0.72
1.058,-0.28,-0.25,-0.70,0.79
1.068,-0.35,-0.21,-0.79,0.89
1.078,-0.43,-0.22,-0.81,0.94
1.088,-0.48,-0.21,-0.62,0.81
1.099,-0.41,-0.29,-0.23,0.55
1.109,-0.26,-0.52,0.06,0.58
1.119,-0.15,-0.73,0.30,0.81
1.129,0.16,-0.41,0.50,0.67
1.139,0.69,0.44,0.57,1.00
1.149,1.03,1.07,0.25,1.51
1.159,1.07,1.13,-0.26,1.58
1.169,0.79,0.92,-0.54,1.33
1.179,0.58,0.67,-0.48,1.01
1.189,0.47,0.46,-0.32,0.73
1.200,0.43,0.43,-0.18,0.63
1.209,0.53,0.53,-0.25,0.79
1.220,1.06,0.86,-0.48,1.44
1.230,1.37,0.89,-0.38,1.67
1.240,1.19,0.98,-0.46,1.60
1.250,1.04,1.38,-0.31,1.76
1.260,0.92,1.45,-0.06,1.72
1.270,0.77,1.09,0.00,1.34
1.280,0.75,0.92,-0.16,1.20
1.290,0.85,0.99,-0.54,1.41
1.300,0.75,1.01,-0.87,1.53
1.310,0.53,1.03,-0.95,1.50
1.320,0.40,0.92,-0.94,1.37
1.330,0.26,0.77,-1.01,1.29
1.341,-0.06,0.65,-1.18,1.35
1.351,-0.45,0.71,-1.28,1.53
1.361,-0.66,0.84,-1.25,1.65
1.371,-0.62,0.94,-1.19,1.64
1.381,-0.32,0.95,-1.09,1.48
1.391,0.14,0.89,-0.75,1.17
1.401,0.61,0.73,-0.30,1.00
1.411,0.83,0.57,-0.08,1.01
1.421,0.70,0.48,-0.09,0.85
1.431,0.50,0.45,-0.20,0.70
1.441,0.35,0.51,-0.53,0.81
1.451,0.23,0.57,-0.85,1.05
1.461,0.21,0.59,-1.02,1.20
1.471,0.29,0.54,-1.12,1.27
1.482,0.32,0.41,-1.15,1.26
1.492,0.30,0.35,-1.11,1.20
1.502,0.30,0.30,-1.06,1.14
1.512,0.33,0.21,-0.93,1.01
1.522,0.38,0.17,-0.82,0.92
1.532,0.51,0.22,-0.83,1.00
1.542,0.47,0.32,-0.85,1.02
1.552,0.26,0.51,-0.77,0.96
1.562,-0.07,0.68,-0.81,1.06
1.572,-0.14,0.57,-0.98,1.14
1.582,-0.05,0.31,-1.02,1.07
1.593,0.05,0.10,-0.86,0.87
1.603,0.29,-0.08,-0.62,0.69
1.613,0.53,-0.26,-0.32,0.67
1.623,0.71,-0.46,-0.04,0.84
1.633,0.82,-0.47,0.02,0.94
1.643,0.76,-0.19,0.03,0.79
1.653,0.70,0.23,0.12,0.74
1.663,0.46,0.31,0.12,0.57
1.673,0.18,0.17,0.11,0.27
1.683,0.04,0.03,0.09,0.10
1.693,0.17,-0.12,-0.03,0.21
1.703,0.36,-0.18,-0.27,0.49
1.713,0.57,-0.20,-0.63,0.87
1.724,0.80,-0.21,-0.88,1.21
1.734,0.87,-0.22,-0.95,1.31
1.744,0.89,-0.21,-0.73,1.17
1.754,0.86,-0.09,-0.13,0.88
1.764,1.05,0.01,0.24,1.08
1.774,0.91,-0.01,0.20,0.94
1.784,0.45,0.05,-0.15,0.48
1.794,-0.10,0.16,-0.50,0.53
1.804,-0.36,0.23,-0.79,0.90
1.814,-0.35,0.27,-1.03,1.12
1.824,-0.17,0.34,-1.20,1.26
1.834,0.07,0.41,-1.25,1.32
1.845,0.32,0.49,-1.05,1.21
1.854,0.57,0.60,-0.64,1.04
1.865,0.92,0.69,-0.32,1.19
1.875,1.16,0.67,0.01,1.34
1.885,1.32,0.57,0.66,1.58
1.895,1.59,0.34,1.32,2.10
1.905,1.67,0.15,1.64,2.35
1.915,1.54,0.20,1.52,2.17
1.925,1.41,0.26,1.02,1.76
1.935,1.31,0.23,0.43,1.40
1.945,1.25,0.17,0.01,1.26
1.955,1.13,0.05,-0.31,1.17
1.965,1.07,-0.06,-0.53,1.20
1.975,1.12,-0.18,-0.60,1.28
1.986,1.13,-0.27,-0.66,1.33
1.996,1.04,-0.41,-0.66,1.30
2.006,0.83,-0.60,-0.56,1.17
2.016,0.55,-0.79,-0.48,1.08
2.026,0.35,-0.91,-0.53,1.11
2.036,0.12,-0.91,-0.65,1.12
2.046,-0.15,-0.92,-0.93,1.32
2.056,-0.28,-1.11,-1.38,1.80
2.066,-0.15,-1.00,-1.67,1.96
2.076,0.55,-0.07,-1.13,1.26
2.087,0.93,0.12,-0.39,1.01
2.096,0.96,-0.40,-0.18,1.06
2.107,0.83,-0.75,-0.42,1.20
2.117,0.50,-0.77,-0.61,1.10
2.127,0.29,-0.59,-0.75,1.00
2.137,0.32,-0.40,-0.73,0.89
2.147,0.53,-0.29,-0.47,0.76
2.157,0.74,-0.31,-0.38,0.89
2.167,0.83,-0.32,-0.53,1.04
2.177,0.75,-0.31,-0.58,1.00
2.187,0.56,-0.32,-0.61,0.89
2.197,0.39,-0.32,-0.69,0.85
2.207,0.27,-0.31,-0.65,0.77
2.217,0.23,-0.23,-0.57,0.66
2.228,0.24,-0.13,-0.51,0.58
2.238,0.33,-0.03,-0.44,0.55
2.248,0.41,0.13,-0.23,0.49
2.258,0.51,0.26,0.12,0.58
2.268,0.66,0.24,0.38,0.79
2.278,0.62,0.15,0.64,0.91
2.288,0.46,0.08,0.87,0.99
2.298,0.20,0.07,0.95,0.97
2.308,-0.10,0.01,0.95,0.95
2.318,-0.38,-0.07,0.71,0.81
2.328,-0.62,-0.10,0.28,0.69
2.338,-1.00,-0.07,-0.11,1.01
2.348,-1.20,-0.12,-0.46,1.29
2.358,-1.22,-0.14,-0.84,1.49
2.369,-1.05,-0.09,-1.11,1.54
2.379,-0.90,-0.11,-1.29,1.58
2.389,-1.02,-0.07,-1.34,1.68
2.399,-1.30,0.07,-1.29,1.84
2.409,-1.56,0.14,-1.23,1.99
2.419,-0.87,-0.19,-0.93,1.29
2.429,-0.56,-0.17,-0.39,0.70
2.439,-0.71,0.04,0.11,0.72
2.449,-0.64,0.07,0.51,0.82
2.459,-0.50,0.04,0.67,0.84
2.470,-0.52,0.03,0.86,1.01
2.479,-0.51,0.07,1.03,1.15
2.490,-0.51,0.16,1.05,1.18
2.500,-0.71,0.25,1.07,1.31
2.510,-0.87,0.19,1.06,1.38
2.520,-1.11,0.18,0.96,1.48
2.530,-1.27,0.24,0.85,1.54
2.540,-1.16,0.21,0.63,1.34
2.550,-0.99,0.17,0.36,1.06
2.560,-0.91,0.14,0.00,0.92
2.570,-0.98,0.15,-0.19,1.01
2.580,-1.04,0.25,-0.17,1.08
2.590,-1.00,0.35,-0.13,1.07
2.600,-0.78,0.38,-0.02,0.86
2.610,-0.51,0.35,0.20,0.66
2.621,-0.38,0.37,0.48,0.71
2.631,-0.36,0.45,0.55,0.80
2.641,-0.41,0.51,0.53,0.85
2.651,-0.48,0.48,0.45,0.82
2.661,-0.71,0.41,0.22,0.85
2.671,-0.95,0.41,0.07,1.04
2.681,-1.08,0.48,0.05,1.18
2.691,-1.19,0.55,0.12,1.32
2.701,-1.24,0.56,0.23,1.38
2.711,-1.29,0.58,0.36,1.46
2.721,-1.22,0.62,0.62,1.50
2.732,-1.01,0.75,0.82,1.50
2.742,-0.76,0.89,0.84,1.44
2.752,-0.68,0.89,0.93,1.46
2.762,-0.67,0.83,1.01,1.47
2.772,-0.66,0.73,1.09,1.47
2.782,-0.62,0.49,1.16,1.41
2.792,-0.70,0.28,1.24,1.45
2.802,-0.96,0.04,1.27,1.59
2.812,-0.98,-0.02,1.12,1.49
2.822,-0.96,-0.02,0.77,1.23
2.832,-0.95,-0.05,0.45,1.05
2.842,-0.89,0.13,0.17,0.92
2.852,-0.75,0.21,-0.00,0.77
2.862,-0.61,0.19,-0.05,0.64
2.873,-0.52,0.20,-0.22,0.60
2.883,-0.39,0.15,-0.33,0.53
2.893,-0.38,0.11,-0.25,0.47
2.903,-0.47,0.04,0.05,0.48
2.913,-0.52,-0.06,0.31,0.60
2.923,-0.46,-0.19,0.47,0.69
2.933,-0.34,-0.25,0.64,0.77
2.943,-0.33,-0.27,0.77,0.88
2.953,-0.38,-0.30,0.74,0.89
2.963,-0.43,-0.36,0.56,0.80
2.973,-0.59,-0.36,0.31,0.75
2.983,-0.79,-0.34,0.02,0.86
2.994,-0.88,-0.33,-0.18,0.96
3.003,-0.96,-0.26,-0.33,1.04
3.014,-0.97,-0.24,-0.40,1.08
3.024,-1.00,-0.25,-0.28,1.07
3.034,-1.02,-0.31,-0.03,1.06
3.044,-0.93,-0.41,0.29,1.06
3.054,-0.90,-0.48,0.66,1.21
3.064,-0.88,-0.57,0.85,1.35
3.074,-0.82,-0.58,0.87,1.33
3.084,-0.73,-0.54,0.76,1.18
3.094,-0.54,-0.46,0.59,0.93
3.104,-0.41,-0.35,0.51,0.74
3.115,-0.65,-0.36,0.29,0.80
3.124,-0.93,-0.42,-0.03,1.02
3.135,-1.04,-0.46,-0.41,1.21
3.145,-1.17,-0.43,-0.65,1.41
3.155,-1.22,-0.41,-0.77,1.50
3.165,-1.21,-0.33,-0.76,1.47
3.175,-1.05,-0.31,-0.67,1.28
3.185,-0.79,-0.30,-0.50,0.98
3.195,-0.51,-0.28,-0.30,0.65
3.205,-0.24,-0.29,-0.17,0.41
3.215,-0.04,-0.31,-0.01,0.31
3.225,0.14,-0.37,0.17,0.43
3.236,0.14,-0.51,0.41,0.67
3.245,0.07,-0.58,0.48,0.76
3.256,0.05,-0.59,0.38,0.71
3.266,0.02,-0.59,0.19,0.62
3.276,-0.03,-0.55,-0.07,0.56
3.286,-0.01,-0.48,-0.35,0.60
3.296,0.06,-0.43,-0.55,0.70
3.306,0.04,-0.43,-0.62,0.75
3.316,0.05,-0.48,-0.65,0.81
3.326,0.12,-0.55,-0.62,0.84
3.336,0.19,-0.58,-0.52,0.81
3.346,0.22,-0.62,-0.49,0.82
3.356,0.21,-0.64,-0.45,0.81
3.367,0.18,-0.62,-0.45,0.78
3.377,0.13,-0.58,-0.53,0.79
3.387,0.13,-0.53,-0.61,0.82
3.397,0.19,-0.45,-0.70,0.85
3.407,0.37,-0.29,-0.72,0.86
3.417,0.57,-0.21,-0.64,0.88
3.427,0.69,-0.13,-0.50,0.86
3.437,0.82,-0.07,-0.35,0.89
3.447,0.96,0.04,-0.26,1.00
3.457,1.23,0.19,-0.26,1.27
3.467,1.46,0.33,-0.30,1.53
3.477,1.60,0.45,-0.40,1.71
3.487,1.72,0.52,-0.56,1.88
3.498,1.66,0.55,-0.69,1.88
3.507,1.62,0.53,-0.73,1.86
3.518,1.58,0.50,-0.64,1.78
3.528,1.51,0.44,-0.43,1.63
3.538,1.39,0.29,-0.09,1.43
3.548,1.33,0.09,0.28,1.36
3.558,1.13,0.12,0.51,1.25
3.568,1.05,0.17,0.45,1.15
3.578,0.98,0.17,0.38,1.07
3.588,0.87,0.28,0.24,0.95
3.598,0.83,0.37,0.06,0.91
3.608,0.86,0.39,-0.16,0.96
3.619,0.98,0.49,-0.27,1.13
3.628,1.23,0.51,-0.28,1.36
3.639,1.58,0.60,0.00,1.69
3.649,1.85,0.66,0.47,2.02
3.659,1.90,0.45,0.78,2.11
3.669,1.66,0.25,0.86,1.89
3.679,1.30,0.25,0.61,1.46
3.689,1.18,0.28,0.10,1.21
3.699,1.09,0.38,-0.38,1.22
3.709,0.88,0.54,-0.64,1.21
3.719,0.85,0.64,-0.83,1.35
3.729,0.91,0.70,-0.94,1.48
3.740,1.00,0.69,-0.78,1.45
3.749,0.99,0.56,-0.54,1.26
3.760,0.89,0.43,-0.46,1.09
3.770,0.83,0.34,-0.45,1.00
3.780,0.77,0.25,-0.43,0.92
3.790,0.84,0.23,-0.38,0.95
3.800,1.03,0.30,-0.24,1.10
3.810,1.21,0.36,-0.08,1.27
3.820,1.33,0.34,0.03,1.37
3.830,1.28,0.22,0.03,1.30
3.840,1.17,0.08,-0.04,1.17
3.850,1.09,0.00,-0.16,1.10
3.860,0.99,-0.07,-0.25,1.02
3.870,0.89,-0.19,-0.35,0.98
3.881,0.77,-0.26,-0.45,0.93
3.891,0.70,-0.26,-0.54,0.92
3.901,0.65,-0.26,-0.62,0.94
3.911,0.59,-0.28,-0.71,0.97
3.921,0.58,-0.28,-0.81,1.03
3.931,0.54,-0.24,-0.88,1.06
3.941,0.49,-0.26,-0.94,1.09
3.951,0.43,-0.28,-0.85,1.00
3.961,0.43,-0.28,-0.69,0.86
3.971,0.43,-0.31,-0.42,0.68
3.981,0.42,-0.30,-0.17,0.55
3.991,0.41,-0.31,0.02,0.51
4.002,0.41,-0.34,0.18,0.56
4.011,0.40,-0.32,0.26,0.58
4.022,0.34,-0.25,0.24,0.48
4.032,0.23,-0.16,0.24,0.37
4.042,0.11,-0.07,0.16,0.21
4.052,0.03,-0.03,0.03,0.05
4.062,-0.02,-0.00,-0.01,0.03
4.072,-0.02,0.09,0.03,0.09
4.082,0.04,0.15,0.09,0.18
4.092,0.07,0.17,0.15,0.24
4.102,0.09,0.18,0.25,0.32
4.112,0.09,0.15,0.35,0.39
4.123,0.10,0.07,0.44,0.46
4.132,0.09,0.03,0.51,0.52
4.143,0.05,-0.06,0.54,0.55
4.153,0.04,-0.18,0.48,0.52
4.163,0.11,-0.20,0.32,0.39
4.173,0.09,-0.26,0.09,0.29
4.183,-0.04,-0.36,-0.20,0.41
4.193,-0.27,-0.41,-0.51,0.71
4.203,-0.47,-0.52,-0.81,1.07
4.213,-0.70,-0.60,-0.98,1.35
4.223,-0.94,-0.65,-1.03,1.54
4.233,-1.12,-0.68,-1.06,1.68
4.243,-1.27,-0.71,-1.10,1.83
4.253,-1.44,-0.74,-1.15,1.99
4.264,-1.60,-0.74,-1.14,2.10
4.274,-1.61,-0.75,-1.15,2.12
4.284,-1.51,-0.72,-1.09,2.00
4.294,-1.44,-0.73,-0.92,1.85
4.304,-1.38,-0.70,-0.75,1.72
4.314,-1.28,-0.65,-0.62,1.56
4.324,-1.16,-0.57,-0.46,1.37
4.334,-1.06,-0.46,-0.30,1.19
4.344,-0.93,-0.34,-0.15,1.00
4.354,-0.74,-0.23,-0.01,0.77
4.364,-0.59,-0.14,0.28,0.66
4.374,-0.48,0.03,0.50,0.70
4.385,-0.36,0.11,0.75,0.84
4.394,-0.33,0.17,1.03,1.10
4.405,-0.47,0.27,1.26,1.37
4.415,-0.60,0.37,1.37,1.54
4.425,-0.62,0.37,1.21,1.41
4.435,-0.58,0.47,0.95,1.21
4.445,-0.63,0.70,0.68,1.16
4.455,-0.65,0.92,0.42,1.20
4.465,-0.73,1.10,0.23,1.34
4.475,-0.72,1.19,0.14,1.40
4.485,-0.69,1.28,0.08,1.45
4.495,-0.65,1.37,0.12,1.52
4.506,-0.60,1.41,0.20,1.54
4.515,-0.54,1.46,0.28,1.58
4.526,-0.50,1.50,0.39,1.63
4.536,-0.47,1.48,0.51,1.63
4.546,-0.45,1.53,0.64,1.72
4.556,-0.40,1.53,0.80,1.77
4.566,-0.34,1.42,0.98,1.76
4.576,-0.18,1.21,1.04,1.60
4.586,-0.05,0.92,1.12,1.45
4.596,-0.04,0.60,1.16,1.31
4.606,-0.15,0.35,1.09,1.16
4.616,-0.34,0.17,0.87,0.95
4.626,-0.57,0.02,0.55,0.79
4.636,-0.79,-0.09,0.23,0.83
4.647,-0.96,-0.09,0.02,0.97
4.656,-1.02,-0.03,-0.21,1.04
4.667,-0.96,0.01,-0.36,1.02
4.677,-0.85,0.07,-0.40,0.95
4.687,-0.78,0.08,-0.39,0.88
4.697,-0.70,0.04,-0.35,0.79
4.707,-0.67,-0.02,-0.30,0.74
4.717,-0.71,-0.09,-0.22,0.74
4.727,-0.73,-0.10,-0.14,0.75
4.737,-0.70,-0.10,-0.05,0.71
4.747,-0.56,-0.20,0.16,0.62
4.757,-0.47,-0.24,0.50,0.73
4.768,-0.53,-0.17,0.73,0.92
4.777,-0.55,-0.31,0.70,0.94
4.788,-0.62,-0.49,0.58,0.98
4.798,-0.72,-0.49,0.46,0.98
4.808,-0.85,-0.53,0.33,1.06
4.818,-0.96,-0.59,0.20,1.15
4.828,-1.01,-0.59,0.07,1.17
4.838,-1.00,-0.56,-0.06,1.15
4.848,-0.91,-0.54,-0.15,1.07
4.858,-0.84,-0.53,-0.19,1.01
4.868,-0.82,-0.49,-0.20,0.97
4.878,-0.76,-0.48,-0.17,0.91
4.889,-0.80,-0.52,-0.14,0.97
4.898,-0.89,-0.51,-0.23,1.05
4.909,-1.12,-0.53,-0.28,1.27
4.919,-1.15,-0.55,-0.19,1.29
4.929,-0.94,-0.52,-0.13,1.08
4.939,-0.87,-0.61,-0.32,1.11
4.949,-0.99,-0.58,-0.29,1.19
4.959,-0.96,-0.32,-0.04,1.02
4.969,-0.81,-0.17,0.16,0.84
4.979,-0.54,-0.08,0.30,0.62
4.989,-0.29,-0.07,0.44,0.53
4.999,-0.17,-0.04,0.76,0.78
5.009,-0.07,-0.08,1.06,1.06
5.019,-0.08,-0.16,1.29,1.30
5.030,-0.11,-0.35,1.40,1.44
5.040,-0.21,-0.49,1.30,1.41
5.050,-0.27,-0.49,1.01,1.15
5.060,-0.20,-0.44,0.57,0.74
5.070,-0.09,-0.32,0.10,0.34
5.080,-0.02,-0.12,-0.36,0.37
5.090,0.04,0.10,-0.72,0.73
5.100,0.20,0.25,-0.86,0.92
5.110,0.42,0.36,-0.72,0.91
5.120,0.66,0.35,-0.44,0.87
5.130,0.80,0.25,-0.13,0.84
5.140,0.83,0.19,0.22,0.87
5.150,0.83,0.12,0.41,0.93
5.161,0.84,-0.03,0.47,0.97
5.171,0.86,-0.17,0.43,0.98
5.181,0.72,-0.27,0.37,0.85
5.191,0.56,-0.30,0.24,0.68
5.201,0.48,-0.37,0.01,0.60
5.211,0.40,-0.52,-0.23,0.69
5.221,0.41,-0.65,-0.41,0.87
5.231,0.43,-0.69,-0.54,0.97
5.241,0.44,-0.71,-0.66,1.06
5.251,0.56,-0.72,-0.61,1.10
5.261,0.61,-0.80,-0.56,1.15
5.271,0.67,-0.82,-0.42,1.14
5.281,0.66,-0.82,-0.35,1.11
5.292,0.67,-0.87,-0.31,1.14
5.302,0.57,-0.93,-0.36,1.14
5.312,0.37,-1.02,-0.58,1.23
5.322,0.19,-1.07,-0.86,1.39
5.332,0.13,-1.11,-1.10,1.57
5.342,0.05,-1.06,-1.37,1.73
5.352,0.10,-1.09,-1.60,1.94
5.362,0.28,-1.29,-1.63,2.09
5.372,0.07,-1.20,-1.69,2.07
5.382,-0.23,-0.58,-1.88,1.98
5.392,0.06,-0.11,-1.67,1.68
5.402,0.45,0.03,-1.28,1.36
5.413,0.76,0.21,-0.87,1.18
5.423,1.38,0.55,-0.35,1.52
5.433,2.12,0.92,0.29,2.33
5.443,2.66,1.38,1.16,3.21
5.453,2.99,1.79,1.92,3.98
5.463,2.98,1.78,2.31,4.17
5.473,3.09,1.53,2.36,4.18
5.483,3.14,1.24,2.16,4.01
5.493,3.05,1.01,1.88,3.72
5.503,3.00,0.84,1.39,3.41
5.513,2.90,0.80,0.76,3.10
5.523,2.74,0.87,0.11,2.87
5.534,2.47,0.95,-0.46,2.69
5.544,2.21,0.90,-0.97,2.58
5.554,1.85,0.78,-1.26,2.37
5.564,1.71,0.76,-1.44,2.37
5.574,1.71,0.87,-1.49,2.43
5.584,1.88,0.84,-1.26,2.41
5.594,1.97,0.74,-0.91,2.29
5.604,1.80,0.65,-0.63,2.02
5.614,1.55,0.48,-0.42,1.68
5.624,1.58,0.41,-0.25,1.66
5.635,1.61,0.47,-0.07,1.68
5.644,1.60,0.52,-0.04,1.68
5.655,1.43,0.46,-0.05,1.51
5.664,1.07,0.25,-0.09,1.11
5.675,0.90,-0.03,-0.22,0.93
5.685,1.11,-0.40,-0.25,1.20
5.695,1.48,-0.70,-0.04,1.64
5.705,1.32,-0.73,0.23,1.53
5.715,0.86,-0.70,0.50,1.21
5.725,0.50,-0.63,0.70,1.07
5.735,0.06,-0.42,0.83,0.93
5.745,-0.06,-0.26,0.74,0.79
5.755,0.24,-0.37,0.43,0.62
5.765,0.33,-0.42,-0.06,0.53
5.775,0.26,-0.37,-0.52,0.69
5.785,0.37,-0.45,-0.63,0.86
5.796,0.59,-0.54,-0.29,0.85
5.806,0.76,-0.56,0.17,0.96
5.816,0.94,-0.63,0.59,1.28
5.826,0.95,-0.73,0.82,1.46
5.836,0.82,-0.83,0.90,1.47
5.846,0.47,-0.85,0.82,1.28
5.856,0.14,-0.92,0.54,1.08
5.866,0.05,-0.97,0.27,1.01
5.876,-0.08,-0.86,-0.00,0.87
5.886,-0.16,-0.70,-0.24,0.76
5.896,-0.14,-0.57,-0.41,0.71
5.907,-0.05,-0.47,-0.50,0.68
5.917,-0.08,-0.39,-0.49,0.63
5.927,-0.32,-0.32,-0.48,0.66
5.937,-0.54,-0.37,-0.51,0.84
5.947,-0.80,-0.43,-0.54,1.06
5.957,-1.01,-0.44,-0.48,1.20
5.967,-1.10,-0.39,-0.38,1.23
5.977,-1.12,-0.40,-0.24,1.21
5.987,-0.98,-0.35,-0.08,1.05
5.997,-0.76,-0.17,0.09,0.78
6.007,-0.74,-0.14,0.15,0.77
6.017,-0.77,-0.28,0.12,0.83
6.027,-0.95,-0.42,0.04,1.04
6.038,-1.14,-0.56,-0.04,1.27
6.048,-1.23,-0.56,-0.09,1.35
6.058,-1.30,-0.52,-0.13,1.41
6.068,-1.38,-0.47,-0.18,1.47
6.078,-1.43,-0.42,-0.30,1.52
6.088,-1.36,-0.35,-0.37,1.45
6.098,-1.16,-0.25,-0.34,1.23
6.108,-1.01,-0.18,-0.34,1.08
6.118,-0.96,-0.16,-0.39,1.05
6.128,-0.92,-0.17,-0.40,1.01
6.138,-0.92,-0.18,-0.42,1.03
6.148,-0.91,-0.17,-0.58,1.09
6.158,-0.84,-0.09,-0.73,1.11
6.168,-0.65,0.05,-0.81,1.04
6.179,-0.49,0.21,-0.81,0.97
6.189,-0.40,0.37,-0.81,0.97
6.199,-0.25,0.44,-0.83,0.98
6.209,-0.06,0.40,-0.78,0.88
6.219,0.11,0.25,-0.59,0.65
6.229,0.18,0.06,-0.35,0.40
6.239,0.32,-0.07,-0.03,0.33
6.249,0.45,-0.14,0.51,0.69
6.259,0.49,-0.15,1.03,1.15
6.269,0.43,-0.04,1.36,1.43
6.279,0.06,0.23,1.19,1.22
6.289,-0.50,0.64,0.48,0.94
6.300,-0.96,1.08,-0.35,1.49
6.310,-1.29,1.66,-0.99,2.32
6.320,-1.55,2.22,-1.24,2.97
6.330,-1.64,2.58,-1.09,3.24
6.340,-1.47,2.76,-0.60,3.18
6.350,-1.08,2.73,0.11,2.93
6.360,-0.81,2.64,0.72,2.86
6.370,-0.69,2.52,1.01,2.80
6.381,-0.68,2.37,0.95,2.64
6.390,-0.78,2.26,0.70,2.49
6.400,-0.91,2.23,0.44,2.45
6.410,-0.92,2.23,0.34,2.44
6.421,-0.91,2.18,0.55,2.43
6.431,-0.96,1.95,0.86,2.33
6.441,-1.14,1.46,1.03,2.12
6.451,-1.54,0.96,1.19,2.17
6.461,-2.01,0.50,1.30,2.45
6.471,-2.37,0.14,1.29,2.70
6.481,-2.57,-0.06,1.23,2.85
6.491,-2.65,-0.16,1.14,2.89
6.501,-2.58,-0.14,1.06,2.80
6.511,-2.36,-0.08,0.94,2.55
6.521,-2.10,-0.06,0.81,2.25
6.531,-1.97,-0.13,0.79,2.13
6.542,-1.84,-0.32,0.80,2.03
6.552,-1.75,-0.55,0.90,2.05
6.562,-1.79,-0.75,1.02,2.19
6.572,-1.87,-0.95,1.01,2.32
6.582,-1.90,-1.12,0.97,2.40
6.592,-1.87,-1.19,0.89,2.39
6.602,-1.84,-1.14,0.85,2.32
6.612,-1.79,-1.12,0.80,2.26
6.622,-1.68,-1.12,0.62,2.11
6.632,-1.51,-1.02,0.53,1.89
6.642,-1.26,-0.92,0.41,1.61
6.652,-1.02,-0.81,0.27,1.33
6.662,-0.91,-0.76,0.16,1.20
6.672,-0.90,-0.70,0.01,1.14
6.683,-0.96,-0.69,-0.12,1.18
6.693,-0.99,-0.67,-0.23,1.22
6.703,-1.03,-0.58,-0.34,1.23
6.713,-1.13,-0.53,-0.44,1.33
6.723,-1.23,-0.57,-0.54,1.46
6.733,-1.36,-0.57,-0.62,1.60
6.743,-1.46,-0.58,-0.62,1.69
6.753,-1.46,-0.51,-0.56,1.64
6.763,-1.29,-0.36,-0.45,1.42
6.773,-1.02,-0.16,-0.27,1.07
6.783,-0.64,0.06,-0.08,0.65
6.793,-0.06,0.22,0.04,0.24
6.804,0.31,0.41,0.13,0.53
6.814,0.59,0.51,0.11,0.78
6.824,0.73,0.52,0.09,0.90
6.834,0.84,0.55,0.17,1.01
6.844,1.00,0.61,0.43,1.25
6.854,1.20,0.65,0.84,1.61
6.864,1.45,0.63,1.37,2.09
6.874,1.65,0.66,1.74,2.49
6.884,1.75,0.58,1.84,2.61
6.894,1.73,0.38,1.66,2.43
6.904,1.49,0.25,1.25,1.96
6.914,1.28,0.14,0.70,1.47
6.924,1.02,0.08,0.18,1.04
6.934,0.91,0.02,-0.11,0.92
6.945,0.81,-0.02,-0.22,0.84
6.955,0.82,-0.11,-0.29,0.88
6.965,0.77,-0.16,-0.28,0.83
6.975,0.67,-0.24,-0.27,0.76
6.985,0.58,-0.32,-0.31,0.74
6.995,0.50,-0.34,-0.41,0.73
7.005,0.47,-0.35,-0.46,0.74
7.015,0.52,-0.36,-0.50,0.81
7.025,0.65,-0.37,-0.58,0.95
7.035,0.85,-0.36,-0.62,1.11
7.046,1.12,-0.36,-0.58,1.31
7.056,1.36,-0.40,-0.50,1.50
7.066,1.47,-0.59,-0.41,1.64
7.076,1.50,-0.88,-0.36,1.78
7.086,1.43,-1.19,-0.38,1.90
7.096,1.23,-1.39,-0.45,1.91
7.106,0.93,-1.49,-0.46,1.82
7.116,0.68,-1.58,-0.47,1.78
7.126,0.48,-1.58,-0.47,1.72
7.136,0.43,-1.48,-0.53,1.63
7.146,0.48,-1.29,-0.61,1.50
7.156,0.45,-0.94,-0.60,1.20
7.166,0.59,-0.58,-0.63,1.04
7.176,1.09,-0.17,-0.60,1.25
7.187,1.69,0.40,-0.40,1.79
7.196,2.38,1.11,-0.21,2.63
7.207,3.01,1.58,-0.12,3.40
7.217,3.53,1.78,-0.17,3.95
7.227,3.78,1.79,-0.13,4.19
7.237,3.71,1.61,-0.01,4.05
7.247,3.47,1.30,0.14,3.71
7.257,3.00,0.93,0.21,3.15
7.267,2.40,0.64,0.22,2.50
7.277,2.08,0.54,0.20,2.16
7.287,2.11,0.54,0.34,2.21
7.297,2.39,0.69,0.48,2.54
7.308,2.63,0.77,0.43,2.77
7.318,2.70,0.69,0.13,2.79
7.328,2.58,0.60,-0.30,2.66
7.338,2.35,0.55,-0.81,2.55
7.348,2.13,0.44,-1.05,2.41
7.358,1.85,0.25,-0.88,2.07
7.368,1.43,-0.13,-0.46,1.50
7.378,0.91,-0.85,0.05,1.24
7.388,1.20,0.13,0.47,1.29
7.398,1.25,0.24,0.53,1.38
7.408,0.67,-0.46,0.63,1.03
7.418,0.37,-0.66,0.68,1.02
7.428,0.41,-0.25,0.72,0.86
7.438,0.53,-0.14,0.69,0.88
7.449,0.41,-0.37,0.63,0.84
7.459,0.28,-0.48,0.52,0.76
7.469,0.36,-0.46,0.41,0.71
7.479,0.41,-0.45,0.44,0.75
7.489,0.43,-0.60,0.42,0.85
7.499,0.40,-0.68,0.35,0.87
7.509,0.37,-0.74,0.19,0.85
7.519,0.31,-0.79,0.02,0.85
7.529,0.27,-0.85,-0.13,0.90
7.539,0.33,-0.85,-0.25,0.95
7.550,0.37,-0.84,-0.28,0.96
7.559,0.29,-0.90,-0.23,0.97
7.570,0.26,-0.91,-0.09,0.95
7.580,0.28,-0.85,0.11,0.90
7.590,0.21,-0.86,0.31,0.94
7.600,0.04,-0.96,0.50,1.08
7.610,-0.20,-1.08,0.68,1.29
7.620,-0.43,-1.12,0.81,1.45
7.630,-0.58,-1.05,0.87,1.48
7.640,-0.60,-0.99,0.84,1.43
7.650,-0.51,-0.89,0.77,1.28
7.660,-0.44,-0.66,0.62,1.01
7.670,-0.41,-0.54,0.41,0.79
7.680,-0.41,-0.50,0.11,0.65
7.691,-0.37,-0.45,-0.18,0.61
7.701,-0.19,-0.34,-0.31,0.49
7.711,-0.02,-0.21,-0.41,0.46
7.721,-0.02,-0.09,-0.43,0.44
7.731,-0.05,-0.02,-0.44,0.44
7.741,-0.04,0.02,-0.42,0.42
7.751,-0.06,0.10,-0.38,0.40
7.761,-0.02,0.20,-0.38,0.43
7.771,0.02,0.35,-0.37,0.51
7.781,0.10,0.39,-0.38,0.55
7.791,0.23,0.51,-0.32,0.64
7.801,0.22,0.63,-0.24,0.71
7.812,0.21,0.64,-0.26,0.72
7.822,0.17,0.54,-0.33,0.65
7.832,0.10,0.44,-0.40,0.61
7.842,0.03,0.34,-0.45,0.57
7.852,-0.04,0.24,-0.43,0.50
7.862,-0.18,0.13,-0.42,0.47
7.872,-0.44,-0.04,-0.38,0.58
7.882,-0.74,-0.24,-0.32,0.84
7.892,-0.99,-0.38,-0.23,1.08
7.902,-1.13,-0.44,-0.09,1.22
7.912,-1.12,-0.39,0.10,1.19
7.922,-1.12,-0.35,0.24,1.20
7.933,-1.10,-0.36,0.20,1.17
7.942,-1.11,-0.35,0.05,1.17
7.953,-1.09,-0.27,-0.23,1.14
7.963,-1.05,-0.12,-0.52,1.18
7.973,-1.07,0.01,-0.78,1.32
7.983,-1.05,0.11,-1.07,1.51
7.993,-1.08,0.22,-1.29,1.70
8.003,-1.09,0.32,-1.44,1.83
8.013,-1.06,0.44,-1.46,1.86
8.023,-1.01,0.58,-1.31,1.75
8.033,-1.05,0.64,-0.99,1.58
8.043,-1.11,0.60,-0.65,1.42
8.053,-1.24,0.51,-0.31,1.38
8.063,-1.37,0.41,0.02,1.43
8.074,-1.48,0.40,0.34,1.57
8.084,-1.52,0.47,0.62,1.71
8.094,-1.60,0.62,0.79,1.89
8.104,-1.67,0.72,0.84,2.00
8.114,-1.65,0.90,0.81,2.04
8.124,-1.64,1.19,0.66,2.13
8.134,-1.66,1.44,0.40,2.23
8.144,-1.64,1.72,0.09,2.38
8.154,-1.64,1.95,-0.15,2.56
8.164,-1.60,2.10,-0.25,2.65
8.174,-1.46,2.18,-0.22,2.63
8.184,-1.29,2.27,-0.11,2.61
8.195,-1.13,2.39,-0.15,2.65
8.205,-1.07,2.43,-0.43,2.69
8.215,-1.09,2.40,-0.78,2.75
8.225,-1.16,2.32,-0.92,2.76
8.235,-1.38,2.14,-0.80,2.67
8.245,-1.71,1.82,-0.48,2.54
8.255,-1.96,1.44,-0.06,2.43
8.265,-2.19,1.17,0.30,2.50
8.275,-2.37,0.86,0.50,2.57
8.285,-2.49,0.59,0.53,2.61
8.295,-2.57,0.48,0.46,2.65
8.305,-2.44,0.53,0.39,2.53
8.316,-2.22,0.60,0.42,2.34
8.325,-1.93,0.61,0.55,2.10
8.336,-1.71,0.55,0.69,1.92
8.346,-1.55,0.46,0.85,1.83
8.356,-1.37,0.33,1.00,1.73
8.366,-1.26,0.22,1.09,1.68
8.376,-1.17,0.20,1.10,1.62
8.386,-1.04,0.26,1.05,1.50
8.396,-0.99,0.26,0.95,1.40
8.406,-1.00,0.24,0.74,1.26
8.416,-1.00,0.19,0.56,1.16
8.426,-0.98,0.10,0.54,1.12
8.436,-0.87,0.02,0.56,1.04
8.446,-0.81,-0.10,0.54,0.98
8.457,-0.75,-0.17,0.49,0.92
8.467,-0.84,-0.22,0.44,0.97
8.477,-0.92,-0.28,0.30,1.00
8.487,-1.02,-0.30,0.21,1.09
8.497,-1.06,-0.24,0.14,1.10
8.507,-1.05,-0.22,0.09,1.08
8.517,-0.99,-0.19,0.07,1.01
8.527,-0.90,-0.16,0.08,0.92
8.537,-0.77,-0.17,0.13,0.80
8.547,-0.67,-0.21,0.12,0.71
8.557,-0.74,-0.27,-0.02,0.79
8.567,-0.90,-0.35,-0.13,0.97
8.578,-1.04,-0.45,-0.19,1.14
8.588,-1.17,-0.51,-0.15,1.29
8.598,-1.23,-0.57,-0.06,1.36
8.608,-1.20,-0.54,0.05,1.32
8.618,-1.10,-0.51,0.21,1.23
8.628,-0.88,-0.50,0.36,1.07
8.638,-0.61,-0.48,0.47,0.90
8.648,-0.31,-0.39,0.47,0.69
8.658,-0.03,-0.31,0.37,0.48
8.668,0.22,-0.18,0.15,0.32
8.678,0.38,-0.09,-0.06,0.39
8.688,0.59,-0.01,-0.16,0.61
8.699,0.85,0.06,-0.03,0.85
8.708,1.07,0.06,0.24,1.10
8.719,1.28,0.04,0.40,1.34
8.729,1.42,-0.02,0.40,1.48
8.739,1.50,-0.10,0.28,1.53
8.749,1.50,-0.18,0.10,1.51
8.759,1.43,-0.23,-0.05,1.45
8.769,1.35,-0.33,-0.10,1.39
8.779,1.27,-0.42,-0.01,1.34
8.789,1.21,-0.54,0.10,1.33
8.799,1.27,-0.61,0.19,1.42
8.809,1.40,-0.57,0.24,1.53
8.820,1.52,-0.50,0.17,1.61
8.829,1.66,-0.42,-0.02,1.71
8.840,1.71,-0.37,-0.24,1.76
8.850,1.70,-0.35,-0.48,1.80
8.860,1.62,-0.40,-0.72,1.82
8.870,1.49,-0.47,-0.78,1.74
8.880,1.36,-0.58,-0.67,1.62
8.890,1.27,-0.72,-0.45,1.52
8.900,1.24,-0.82,-0.24,1.50
8.910,1.26,-0.94,-0.03,1.57
8.920,1.30,-1.06,0.12,1.68
8.930,1.30,-1.15,0.12,1.74
8.940,1.29,-1.16,-0.03,1.73
8.950,1.25,-1.11,-0.27,1.69
8.961,1.26,-1.01,-0.54,1.70
8.971,1.28,-0.89,-0.85,1.77
8.981,1.25,-0.72,-1.12,1.83
8.991,1.30,-0.50,-1.35,1.94
9.001,1.42,-0.22,-1.42,2.02
9.011,1.53,-0.01,-1.41,2.08
9.021,1.71,0.14,-1.22,2.10
9.031,1.99,0.28,-0.87,2.19
9.041,2.28,0.42,-0.44,2.36
9.051,2.54,0.57,-0.06,2.60
9.061,2.77,0.73,0.10,2.87
9.071,2.90,0.88,0.08,3.03
9.082,2.97,1.02,-0.08,3.14
9.092,2.99,1.09,-0.24,3.19
9.102,2.99,1.09,-0.30,3.20
9.112,2.99,0.99,-0.19,3.16
9.122,2.88,0.85,0.01,3.00
9.132,2.73,0.56,0.19,2.79
9.142,2.51,0.23,0.43,2.55
9.152,2.34,0.01,0.71,2.45
9.162,2.13,-0.13,0.95,2.33
9.172,1.85,-0.36,0.92,2.10
9.182,1.61,-0.56,0.67,1.83
9.192,1.45,-0.65,0.38,1.64
9.202,1.47,-0.69,0.10,1.62
9.212,1.49,-0.58,-0.24,1.61
9.223,1.42,-0.50,-0.54,1.60
9.233,1.33,-0.50,-0.79,1.62
9.243,1.23,-0.59,-0.92,1.65
9.253,1.11,-0.61,-0.86,1.53
9.263,1.00,-0.63,-0.66,1.36
9.273,0.97,-0.62,-0.39,1.22
9.283,1.01,-0.54,-0.09,1.15
9.293,1.06,-0.36,0.21,1.13
9.303,1.10,-0.23,0.36,1.18
9.313,1.09,-0.19,0.38,1.18
9.323,1.15,-0.14,0.41,1.23
9.333,1.20,-0.08,0.43,1.28
9.344,1.24,-0.07,0.38,1.30
9.354,1.20,-0.09,0.29,1.24
9.364,1.14,-0.15,0.21,1.17
9.374,1.06,-0.20,0.11,1.09
9.384,1.01,-0.22,0.01,1.03
9.394,0.95,-0.19,-0.06,0.97
9.404,0.88,-0.20,-0.13,0.91
9.414,0.89,-0.19,-0.15,0.92
9.424,0.90,-0.14,-0.14,0.92
9.434,0.88,-0.11,-0.06,0.89
9.444,0.83,-0.13,0.03,0.84
9.454,0.78,-0.14,0.12,0.80
9.465,0.73,-0.16,0.16,0.77
9.474,0.64,-0.18,0.26,0.71
9.485,0.54,-0.17,0.33,0.65
9.495,0.50,-0.15,0.41,0.67
9.505,0.40,-0.13,0.50,0.65
9.515,0.30,-0.06,0.49,0.58
9.525,0.22,0.04,0.50,0.55
9.535,0.21,0.07,0.54,0.59
9.545,0.19,0.06,0.49,0.53
9.555,0.10,0.02,0.38,0.39
9.565,0.06,-0.00,0.24,0.25
9.575,-0.09,0.01,0.06,0.11
9.586,-0.27,0.03,-0.19,0.33
9.595,-0.49,-0.02,-0.39,0.63
9.606,-0.69,-0.07,-0.44,0.83
9.616,-0.89,-0.10,-0.35,0.97
9.626,-1.10,-0.16,-0.22,1.13
9.636,-1.28,-0.22,-0.04,1.30
9.646,-1.38,-0.26,0.11,1.41
9.656,-1.42,-0.24,0.24,1.46
9.666,-1.39,-0.23,0.39,1.46
9.676,-1.49,-0.30,0.51,1.61
9.686,-1.51,-0.33,0.60,1.65
9.696,-1.54,-0.35,0.61,1.69
9.707,-1.53,-0.41,0.53,1.67
9.716,-1.55,-0.46,0.35,1.66
9.727,-1.55,-0.46,0.14,1.62
9.737,-1.49,-0.42,-0.02,1.55
9.747,-1.40,-0.33,-0.13,1.44
9.757,-1.34,-0.22,-0.20,1.37
9.767,-1.28,-0.14,-0.23,1.31
9.777,-1.20,-0.06,-0.15,1.21
9.787,-1.13,0.01,0.01,1.13
9.797,-1.07,0.05,0.30,1.11
9.807,-0.99,0.00,0.68,1.20
9.817,-1.02,-0.08,0.99,1.42
9.827,-1.11,-0.14,1.25,1.68
9.837,-1.20,-0.18,1.47,1.91
9.848,-1.25,-0.18,1.63,2.06
9.858,-1.29,-0.16,1.74,2.17
9.868,-1.51,-0.07,1.73,2.29
9.878,-1.71,0.00,1.59,2.34
9.888,-1.96,0.15,1.38,2.40
9.898,-2.15,0.23,1.10,2.42
9.908,-2.19,0.39,0.93,2.41
9.918,-2.20,0.56,0.85,2.42
9.928,-2.06,0.74,0.75,2.31
9.938,-1.84,0.90,0.71,2.17
9.948,-1.65,1.01,0.68,2.05
9.958,-1.55,1.01,0.50,1.92
9.969,-1.51,1.01,0.26,1.83
9.979,-1.53,1.10,0.01,1.88
9.989,-1.55,1.19,-0.22,1.97
9.999,-1.59,1.19,-0.45,2.04
10.009,-1.69,1.21,-0.60,2.16
10.019,-1.80,1.23,-0.68,2.29
10.029,-1.86,1.17,-0.64,2.29
10.039,-1.92,1.05,-0.51,2.25
10.049,-1.91,0.95,-0.34,2.16
10.059,-1.82,0.92,-0.09,2.04
10.069,-1.74,0.84,0.20,1.95
10.080,-1.75,0.69,0.32,1.90
10.090,-1.83,0.54,0.32,1.93
10.100,-1.92,0.44,0.26,1.98
10.110,-1.88,0.46,0.23,1.94
10.120,-1.74,0.60,0.31,1.86
10.130,-1.53,0.76,0.49,1.77
10.140,-1.29,0.87,0.65,1.68
10.150,-1.12,0.91,0.76,1.63
10.160,-0.98,0.88,0.87,1.58
10.170,-0.82,0.82,0.97,1.51
10.180,-0.72,0.70,1.00,1.42
10.190,-0.74,0.58,1.06,1.42
10.200,-0.77,0.48,1.12,1.44
10.210,-0.81,0.42,1.09,1.42
10.220,-0.93,0.42,1.01,1.44
10.231,-1.02,0.40,0.94,1.44
10.241,-1.06,0.37,0.87,1.42
10.251,-1.03,0.33,0.81,1.35
10.261,-1.03,0.27,0.76,1.31
10.271,-1.01,0.12,0.67,1.22
10.281,-0.97,-0.07,0.57,1.13
10.291,-0.93,-0.23,0.54,1.10
10.301,-0.91,-0.34,0.49,1.09
10.311,-0.90,-0.43,0.45,1.09
10.321,-0.93,-0.51,0.35,1.11
10.331,-0.96,-0.61,0.22,1.16
10.341,-0.96,-0.68,0.15,1.19
10.352,-0.97,-0.72,0.17,1.22
10.362,-0.93,-0.71,0.13,1.18
10.372,-0.90,-0.63,0.10,1.11
10.382,-0.83,-0.57,0.05,1.00
10.392,-0.78,-0.47,-0.07,0.91
10.402,-0.75,-0.46,-0.18,0.89
10.412,-0.71,-0.44,-0.17,0.85
10.422,-0.58,-0.38,-0.05,0.70
10.432,-0.37,-0.31,0.09,0.49
10.442,-0.18,-0.25,0.18,0.36
10.452,0.03,-0.19,0.22,0.29
10.462,0.16,-0.14,0.19,0.28
10.472,0.30,-0.13,0.08,0.34
10.482,0.49,-0.07,-0.03,0.50
10.493,0.71,0.09,-0.09,0.72
10.503,0.82,0.19,-0.14,0.86
10.513,0.91,0.15,-0.22,0.95
10.523,0.95,0.10,-0.24,0.98
10.533,0.93,0.05,-0.23,0.96
10.543,0.96,-0.02,-0.19,0.98
10.553,1.01,-0.06,-0.11,1.02
10.563,1.03,-0.08,-0.09,1.04
10.573,1.07,-0.11,-0.09,1.08
10.583,1.11,-0.13,-0.12,1.12
10.593,1.22,-0.18,-0.18,1.24
10.603,1.32,-0.17,-0.16,1.34
10.614,1.45,-0.13,-0.12,1.47
10.624,1.54,-0.11,-0.10,1.55
10.634,1.59,-0.13,-0.09,1.60
10.644,1.62,-0.20,-0.13,1.64
10.654,1.67,-0.27,-0.24,1.71
10.664,1.69,-0.32,-0.33,1.76
10.674,1.74,-0.33,-0.36,1.81
10.684,1.79,-0.38,-0.40,1.88
10.694,1.84,-0.45,-0.45,1.95
10.704,1.84,-0.52,-0.51,1.98
10.714,1.82,-0.56,-0.62,2.00
10.724,1.77,-0.56,-0.70,1.98
10.735,1.68,-0.57,-0.76,1.93
10.744,1.59,-0.55,-0.76,1.85
10.755,1.49,-0.46,-0.72,1.72
10.765,1.37,-0.42,-0.69,1.59
10.775,1.27,-0.45,-0.69,1.52
10.785,1.29,-0.49,-0.67,1.54
10.795,1.41,-0.47,-0.63,1.61
10.805,1.60,-0.44,-0.53,1.74
10.815,1.84,-0.37,-0.42,1.92
10.825,2.10,-0.27,-0.32,2.14
10.835,2.31,-0.16,-0.41,2.35
10.845,2.53,-0.02,-0.65,2.61
10.856,2.56,0.17,-0.95,2.73
10.866,2.38,0.33,-1.31,2.73
10.876,2.11,0.44,-1.67,2.72
10.886,1.90,0.56,-1.86,2.72
10.896,1.76,0.72,-1.80,2.62
10.906,1.72,0.80,-1.59,2.48
10.916,1.77,0.86,-1.34,2.38
10.926,1.67,0.88,-1.10,2.19
10.936,1.53,0.74,-1.01,1.97
10.946,1.38,0.58,-0.93,1.77
10.956,1.27,0.43,-0.68,1.50
10.966,1.22,0.27,-0.38,1.31
10.976,1.22,0.12,-0.10,1.23
10.986,1.15,-0.00,0.15,1.16
10.997,0.99,-0.20,0.38,1.08
11.007,0.96,-0.38,0.38,1.10
11.017,0.83,-0.46,0.26,0.98
11.027,0.85,-0.41,0.08,0.95
11.037,0.91,-0.16,-0.20,0.94
11.047,1.03,0.04,-0.45,1.13
11.057,1.20,0.24,-0.66,1.39
11.067,1.35,0.47,-0.78,1.63
11.077,1.54,0.60,-0.80,1.84
11.087,1.56,0.73,-0.73,1.87
11.097,1.50,0.75,-0.67,1.81
11.107,1.44,0.63,-0.66,1.70
11.118,1.30,0.49,-0.62,1.52
11.128,1.06,0.37,-0.58,1.26
11.138,0.98,0.23,-0.54,1.14
11.148,0.90,0.17,-0.49,1.04
11.158,0.73,0.13,-0.47,0.88
11.168,0.61,0.02,-0.45,0.76
11.178,0.51,-0.01,-0.38,0.63
11.188,0.24,-0.24,-0.33,0.47
11.198,0.29,-0.08,-0.41,0.51
11.208,0.16,-0.14,-0.44,0.49
11.218,0.05,-0.30,-0.31,0.44
11.228,0.09,-0.25,-0.20,0.33
11.239,0.20,-0.07,-0.00,0.21
11.248,0.25,-0.05,0.09,0.27
11.259,0.27,-0.13,0.10,0.32
11.269,0.22,-0.17,0.01,0.28
11.279,0.22,-0.23,-0.10,0.33
11.289,0.18,-0.24,-0.20,0.37
11.299,0.05,-0.33,-0.34,0.48
11.309,-0.03,-0.40,-0.49,0.63
11.319,-0.04,-0.30,-0.58,0.66
11.329,0.11,-0.18,-0.51,0.55
11.339,0.19,-0.15,-0.27,0.37
11.349,0.18,-0.19,-0.05,0.27
11.359,0.16,-0.23,0.02,0.29
11.370,0.24,-0.18,0.01,0.30
11.380,0.18,-0.17,-0.13,0.28
11.390,0.14,-0.12,-0.25,0.31
11.400,0.04,-0.03,-0.33,0.33
11.410,-0.08,-0.07,-0.37,0.38
11.420,-0.28,-0.11,-0.32,0.44
11.430,-0.48,-0.24,-0.17,0.56
11.440,-0.66,-0.36,-0.05,0.75
11.450,-0.86,-0.49,0.06,0.99
11.460,-1.17,-0.64,0.09,1.34
11.470,-1.36,-0.70,0.13,1.54
11.480,-1.48,-0.72,0.29,1.67
11.490,-1.51,-0.77,0.51,1.77
11.501,-1.55,-0.84,0.73,1.91
11.510,-1.56,-0.93,0.87,2.02
11.521,-1.58,-0.97,0.91,2.06
11.531,-1.52,-0.92,0.88,1.98
11.541,-1.49,-0.81,0.81,1.88
11.551,-1.48,-0.73,0.75,1.81
11.561,-1.42,-0.67,0.65,1.69
11.571,-1.41,-0.46,0.52,1.57
11.581,-1.43,-0.21,0.30,1.47
11.591,-1.50,-0.11,0.21,1.52
11.601,-1.52,-0.09,0.27,1.54
11.611,-1.67,-0.02,0.41,1.72
11.622,-1.90,-0.07,0.63,2.00
11.632,-2.00,-0.05,0.88,2.19
11.642,-2.12,0.06,1.21,2.44
11.652,-2.32,0.16,1.44,2.73
11.662,-2.51,0.18,1.60,2.98
11.672,-2.61,0.29,1.73,3.15
11.682,-2.55,0.56,1.88,3.21
11.692,-2.34,0.86,1.85,3.11
11.702,-2.06,1.17,1.77,2.96
11.712,-1.60,1.57,1.69,2.80
11.722,-1.12,1.88,1.64,2.74
11.732,-0.69,2.04,1.56,2.66
11.743,-0.40,2.04,1.39,2.50
11.753,-0.27,1.90,1.18,2.25
11.763,-0.21,1.76,1.00,2.03
11.773,-0.28,1.58,0.85,1.82
11.783,-0.47,1.37,0.74,1.62
11.793,-0.57,1.22,0.77,1.55
11.803,-0.59,1.05,1.03,1.58
11.813,-0.53,0.82,1.28,1.61
11.823,-0.51,0.65,1.43,1.65
11.833,-0.50,0.50,1.46,1.62
11.843,-0.55,0.34,1.29,1.44
11.853,-0.70,0.29,0.97,1.23
11.863,-0.88,0.22,0.64,1.11
11.873,-1.23,0.08,0.42,1.30
11.884,-1.58,-0.03,0.26,1.60
11.894,-1.87,0.00,0.23,1.89
11.904,-2.06,0.02,0.35,2.09
11.914,-2.10,0.05,0.55,2.17
11.924,-2.05,0.09,0.77,2.19
11.934,-1.94,0.09,0.92,2.15
11.944,-1.77,0.17,1.02,2.05
11.954,-1.66,0.30,1.06,1.99
11.964,-1.55,0.35,1.04,1.90
11.974,-1.40,0.49,0.94,1.76
11.984,-1.29,0.60,0.88,1.67
11.994,-1.22,0.57,0.88,1.61
12.005,-1.18,0.53,0.91,1.59
12.015,-1.07,0.49,1.03,1.56
12.025,-0.98,0.39,1.14,1.55
12.035,-0.91,0.31,1.14,1.49
12.045,-0.78,0.23,0.93,1.24
12.055,-0.56,0.13,0.63,0.85
12.065,-0.48,0.06,0.47,0.68
12.075,-0.50,-0.08,0.37,0.62
12.085,-0.50,-0.27,0.30,0.64
12.095,-0.57,-0.45,0.20,0.76
12.105,-0.70,-0.56,0.09,0.90
12.115,-0.81,-0.62,0.00,1.02
12.125,-1.01,-0.65,-0.03,1.21
12.136,-1.16,-0.75,-0.10,1.38
12.146,-1.23,-0.76,-0.19,1.46
12.156,-1.19,-0.59,-0.27,1.35
12.166,-1.07,-0.37,-0.35,1.18
12.176,-0.97,-0.29,-0.47,1.12
12.186,-0.79,-0.20,-0.47,0.94
12.196,-0.54,-0.03,-0.34,0.64
12.206,-0.24,0.16,-0.15,0.32
12.216,-0.04,0.23,0.01,0.24
12.226,0.11,0.24,0.09,0.28
12.236,0.22,0.24,0.15,0.36
12.247,0.25,0.22,0.27,0.43
12.256,0.19,0.19,0.28,0.39
12.267,0.19,0.15,0.28,0.37
12.276,0.17,0.08,0.27,0.33
12.287,0.21,0.02,0.25,0.33
12.297,0.25,-0.03,0.31,0.40
12.307,0.36,-0.02,0.37,0.51
12.317,0.49,0.07,0.43,0.66
12.327,0.72,0.14,0.39,0.83
12.337,0.94,0.20,0.29,1.00
12.347,1.06,0.18,0.15,1.08
12.357,1.17,0.08,-0.03,1.17
12.367,1.14,-0.03,-0.23,1.16
12.377,1.11,-0.16,-0.44,1.20
12.388,1.06,-0.22,-0.67,1.27
12.398,1.03,-0.19,-0.83,1.33
12.408,1.08,-0.19,-0.84,1.38
12.418,1.11,-0.20,-0.80,1.38
12.428,1.18,-0.23,-0.68,1.38
12.438,1.23,-0.24,-0.55,1.37
12.448,1.21,-0.32,-0.44,1.33
12.458,1.19,-0.41,-0.38,1.31
12.468,1.14,-0.42,-0.32,1.26
12.478,1.04,-0.36,-0.36,1.16
12.488,0.93,-0.34,-0.40,1.07
12.498,0.92,-0.33,-0.43,1.06
12.509,0.93,-0.29,-0.41,1.06
12.518,0.95,-0.25,-0.38,1.06
12.529,1.04,-0.28,-0.40,1.15
12.539,1.13,-0.26,-0.45,1.24
12.549,1.22,-0.23,-0.42,1.31
12.559,1.34,-0.22,-0.32,1.40
12.569,1.49,-0.22,-0.21,1.52
12.579,1.58,-0.24,-0.11,1.60
12.589,1.73,-0.24,0.02,1.75
12.599,1.86,-0.21,0.02,1.88
12.609,1.93,-0.16,-0.16,1.95
12.619,1.92,-0.05,-0.48,1.98
12.629,1.94,0.07,-0.79,2.09
12.639,2.05,0.19,-1.01,2.29
12.650,2.29,0.29,-1.08,2.55
12.660,2.56,0.41,-1.14,2.83
12.670,2.69,0.51,-1.28,3.02
12.680,2.76,0.47,-1.47,3.16
12.690,2.69,0.32,-1.57,3.13
12.700,2.60,0.20,-1.50,3.00
12.710,2.58,0.01,-1.25,2.87
12.720,2.48,-0.28,-0.98,2.68
12.730,2.33,-0.53,-0.75,2.51
12.740,2.11,-0.72,-0.62,2.31
12.750,1.79,-0.97,-0.66,2.14
12.760,1.38,-1.20,-0.76,1.98
12.771,1.02,-1.34,-0.83,1.88
12.781,0.85,-1.36,-0.81,1.79
12.791,0.87,-1.26,-0.72,1.69
12.801,0.95,-1.05,-0.64,1.55
12.811,0.95,-0.94,-0.65,1.48
12.821,0.97,-0.87,-0.74,1.50
12.831,1.02,-0.81,-0.88,1.57
12.841,1.04,-0.61,-0.93,1.52
12.851,1.13,-0.39,-0.92,1.51
12.861,1.36,-0.29,-0.88,1.65
12.871,1.47,-0.08,-0.67,1.62
12.881,1.62,0.05,-0.38,1.66
12.892,1.67,0.08,-0.15,1.68
12.902,1.67,0.07,0.07,1.67
12.912,1.73,0.06,0.27,1.75
12.922,1.77,0.06,0.31,1.80
12.932,1.69,0.01,0.30,1.71
12.942,1.54,-0.09,0.26,1.57
12.952,1.44,-0.22,0.36,1.50
12.962,1.35,-0.34,0.48,1.47
12.972,1.17,-0.50,0.57,1.39
12.982,0.96,-0.69,0.57,1.31
12.992,0.75,-0.80,0.52,1.21
13.002,0.62,-0.87,0.48,1.17
13.012,0.49,-0.96,0.42,1.15
13.022,0.39,-1.02,0.36,1.15
13.033,0.31,-1.05,0.31,1.14
13.043,0.28,-1.06,0.21,1.12
13.053,0.28,-1.03,0.08,1.07
13.063,0.27,-0.93,-0.06,0.97
13.075,0.25,-0.86,-0.31,0.95
13.083,0.22,-0.81,-0.56,1.01
13.093,0.26,-0.72,-0.75,1.07
13.103,0.31,-0.51,-0.94,1.11
13.113,0.50,-0.25,-1.06,1.20
13.123,0.65,-0.09,-1.05,1.23
13.134,0.75,-0.01,-1.03,1.28
13.143,0.87,0.07,-0.92,1.27
13.154,0.98,0.16,-0.63,1.18
13.164,1.04,0.16,-0.25,1.08
13.174,1.05,0.11,0.11,1.06
13.184,0.94,-0.05,0.40,1.02
13.194,0.67,-0.25,0.42,0.83
13.204,0.35,-0.34,0.29,0.57
13.214,0.05,-0.30,0.09,0.32
13.224,-0.19,-0.20,-0.17,0.32
13.234,-0.42,-0.10,-0.37,0.57
13.244,-0.58,-0.09,-0.50,0.77
13.254,-0.75,-0.11,-0.48,0.90
13.264,-0.81,-0.05,-0.35,0.88
13.274,-0.80,-0.07,-0.35,0.87
13.285,-0.93,0.01,-0.28,0.97
13.295,-1.20,0.06,-0.29,1.24
13.305,-1.48,-0.01,-0.34,1.52
13.315,-1.74,-0.08,-0.32,1.77
13.325,-1.83,0.01,-0.26,1.84
13.335,-1.76,0.23,-0.22,1.79
13.345,-1.58,0.42,-0.15,1.64
13.355,-1.39,0.63,-0.09,1.53
13.365,-1.10,0.94,-0.01,1.45
13.375,-0.82,1.08,0.10,1.36
13.385,-0.64,0.97,0.32,1.20
13.395,-0.68,0.72,0.54,1.13
13.405,-0.82,0.44,0.79,1.22
13.416,-1.02,0.26,1.02,1.47
13.426,-1.23,0.15,1.32,1.81
13.436,-1.42,0.13,1.64,2.17
13.446,-1.47,0.14,1.90,2.41
13.456,-1.56,0.31,2.00,2.56
13.466,-1.65,0.51,1.98,2.63
13.476,-1.60,0.63,1.84,2.51
13.486,-1.51,0.74,1.68,2.38
13.496,-1.33,0.92,1.54,2.23
13.506,-1.18,1.17,1.39,2.16
13.516,-0.98,1.35,1.17,2.04
13.526,-0.76,1.53,0.87,1.92
13.537,-0.68,1.58,0.50,1.79
13.547,-0.58,1.52,0.23,1.64
13.557,-0.47,1.47,0.08,1.54
13.567,-0.45,1.41,0.16,1.49
13.577,-0.39,1.23,0.31,1.32
13.587,-0.34,1.03,0.41,1.16
13.597,-0.32,0.82,0.52,1.02
13.607,-0.28,0.65,0.51,0.87
13.617,-0.33,0.47,0.34,0.67
13.627,-0.52,0.31,0.10,0.61
13.637,-0.71,0.14,-0.14,0.74
13.647,-0.97,-0.11,-0.37,1.05
13.658,-1.29,-0.31,-0.57,1.45
13.668,-1.62,-0.47,-0.73,1.84
13.678,-1.90,-0.49,-0.73,2.09
13.688,-2.00,-0.51,-0.69,2.17
13.698,-1.90,-0.41,-0.50,2.01
13.708,-1.69,-0.23,-0.32,1.73
13.718,-1.46,-0.02,-0.19,1.47
13.728,-1.16,0.19,-0.03,1.18
13.738,-0.79,0.35,0.15,0.88
13.748,-0.45,0.54,0.33,0.78
13.758,-0.26,0.62,0.35,0.75
13.768,-0.13,0.66,0.34,0.75
13.778,-0.07,0.62,0.41,0.75
13.788,-0.02,0.50,0.54,0.74
13.799,-0.15,0.34,0.62,0.72
13.809,-0.33,0.18,0.57,0.68
13.819,-0.54,0.11,0.45,0.72
13.829,-0.78,-0.00,0.33,0.85
13.839,-0.97,-0.13,0.17,0.99
13.849,-1.04,-0.13,0.01,1.05
13.859,-1.14,-0.09,-0.17,1.15
13.869,-1.29,-0.09,-0.24,1.31
13.879,-1.39,-0.12,-0.24,1.41
13.889,-1.45,-0.18,-0.04,1.46
13.900,-1.50,-0.28,0.22,1.54
13.909,-1.49,-0.36,0.46,1.60
13.920,-1.49,-0.34,0.72,1.69
13.930,-1.53,-0.38,0.89,1.82
13.940,-1.60,-0.39,0.90,1.88
13.950,-1.57,-0.27,0.89,1.83
13.960,-1.55,-0.19,0.81,1.76
13.970,-1.51,-0.12,0.72,1.68
13.980,-1.34,-0.07,0.70,1.52
13.990,-1.03,0.10,0.73,1.27
14.000,-0.73,0.22,0.74,1.07
14.010,-0.42,0.18,0.78,0.91
14.021,-0.18,0.20,0.77,0.81
14.030,0.03,0.27,0.61,0.67
14.041,0.22,0.37,0.37,0.57
14.051,0.39,0.44,0.14,0.60
14.061,0.55,0.52,0.04,0.76
14.071,0.74,0.57,-0.03,0.93
14.081,0.82,0.56,-0.06,1.00
14.091,0.89,0.41,-0.03,0.98
14.101,0.89,0.22,0.01,0.91
14.111,0.78,0.05,0.10,0.79
14.121,0.67,-0.11,0.24,0.72
14.131,0.55,-0.23,0.37,0.70
14.141,0.46,-0.30,0.41,0.69
14.151,0.44,-0.26,0.44,0.67
14.162,0.56,-0.21,0.36,0.70
14.172,0.67,-0.10,0.24,0.72
14.182,0.76,-0.03,0.11,0.77
14.192,0.90,-0.02,0.05,0.90
14.202,1.07,0.01,-0.01,1.07
14.212,1.24,0.05,-0.03,1.24
14.222,1.37,-0.04,-0.05,1.37
14.232,1.42,-0.18,-0.12,1.44
14.242,1.34,-0.32,-0.20,1.39
14.252,1.25,-0.52,-0.32,1.39
14.262,1.14,-0.65,-0.35,1.36
14.272,1.04,-0.75,-0.34,1.33
14.283,1.07,-0.77,-0.30,1.35
14.293,1.14,-0.70,-0.29,1.37
14.303,1.20,-0.66,-0.33,1.41
14.313,1.28,-0.65,-0.38,1.49
14.323,1.35,-0.59,-0.49,1.55
14.333,1.45,-0.48,-0.62,1.65
14.343,1.49,-0.41,-0.75,1.72
14.353,1.46,-0.43,-0.87,1.75
14.363,1.37,-0.46,-0.93,1.72
14.373,1.32,-0.43,-0.88,1.65
14.383,1.35,-0.38,-0.82,1.63
14.393,1.42,-0.37,-0.97,1.76
14.403,1.45,-0.13,-1.11,1.83
14.413,1.65,0.05,-1.37,2.15
14.424,1.97,0.27,-1.55,2.52
14.434,2.27,0.49,-1.70,2.88
14.444,2.54,0.63,-1.87,3.21
14.454,2.64,0.66,-1.91,3.33
14.464,2.65,0.64,-2.00,3.38
14.474,2.43,0.55,-2.16,3.30
14.484,2.17,0.43,-2.19,3.11
14.494,2.06,0.31,-1.87,2.80
14.504,2.13,0.14,-1.22,2.46
14.514,2.19,-0.11,-0.47,2.24
14.524,2.25,-0.43,0.09,2.29
14.534,2.06,-0.73,0.37,2.22
14.544,1.62,-1.02,0.38,1.95
14.555,1.23,-1.23,0.28,1.76
14.565,0.90,-1.28,0.17,1.58
14.575,0.63,-1.18,-0.04,1.34
14.585,0.42,-1.01,-0.22,1.12
14.595,0.34,-0.94,-0.20,1.02
14.605,0.44,-0.92,-0.01,1.02
14.615,0.65,-0.77,0.25,1.04
14.625,0.89,-0.59,0.55,1.20
14.635,1.15,-0.37,0.79,1.44
14.645,1.41,-0.15,1.01,1.74
14.655,1.54,0.10,1.17,1.94
14.666,1.70,0.24,1.16,2.07
14.675,1.82,0.42,1.07,2.16
14.686,1.84,0.59,0.89,2.12
14.696,1.72,0.63,0.66,1.95
14.706,1.66,0.62,0.47,1.83
14.716,1.56,0.61,0.34,1.71
14.726,1.44,0.53,0.29,1.56
14.736,1.35,0.39,0.31,1.44
14.746,1.21,0.22,0.43,1.30
14.756,0.94,0.06,0.45,1.04
14.766,0.57,-0.15,0.37,0.70
14.776,0.21,-0.39,0.31,0.54
14.787,-0.12,-0.61,0.32,0.70
14.796,-0.43,-0.81,0.32,0.97
14.807,-0.69,-1.02,0.33,1.28
14.817,-0.79,-1.12,0.35,1.42
14.827,-0.72,-1.08,0.37,1.35
14.837,-0.44,-0.96,0.34,1.10
14.847,-0.17,-0.85,0.26,0.91
14.857,0.08,-0.75,0.18,0.77
14.867,0.23,-0.64,-0.04,0.68
14.877,0.15,-0.58,-0.42,0.73
14.887,0.03,-0.47,-0.69,0.83
14.897,0.04,-0.37,-0.77,0.85
14.907,0.13,-0.23,-0.68,0.73
14.917,0.29,-0.09,-0.54,0.62
14.927,0.34,0.04,-0.46,0.58
14.938,0.41,0.14,-0.42,0.60
14.948,0.50,0.23,-0.35,0.65
14.958,0.54,0.28,-0.27,0.67
14.968,0.59,0.28,-0.24,0.70
14.978,0.53,0.27,-0.22,0.63
14.988,0.35,0.20,-0.25,0.48
14.998,0.15,0.12,-0.32,0.37
15.008,-0.12,0.04,-0.36,0.38
15.018,-0.41,-0.06,-0.35,0.54
15.028,-0.71,-0.18,-0.35,0.81
15.038,-0.95,-0.27,-0.32,1.04
15.049,-1.03,-0.26,-0.25,1.09
15.058,-0.91,-0.17,-0.06,0.93
15.069,-0.73,-0.12,0.04,0.74
15.079,-0.55,-0.08,0.16,0.57
15.089,-0.48,-0.06,0.19,0.52
15.099,-0.49,-0.09,0.12,0.51
15.109,-0.56,-0.14,0.04,0.58
15.119,-0.66,-0.14,-0.01,0.68
15.129,-0.67,-0.09,-0.00,0.67
15.139,-0.73,-0.02,0.02,0.73
15.149,-0.79,0.00,0.03,0.79
15.159,-0.97,0.13,-0.03,0.98
15.169,-1.05,0.21,-0.08,1.07
15.179,-1.13,0.28,-0.00,1.16
15.190,-1.22,0.23,0.08,1.25
15.200,-1.40,0.08,0.16,1.41
15.210,-1.48,0.05,0.24,1.50
15.220,-1.62,0.13,0.37,1.67
15.230,-1.75,0.28,0.41,1.82
15.240,-1.80,0.44,0.39,1.89
15.250,-1.87,0.67,0.40,2.03
15.260,-1.87,0.87,0.45,2.11
15.270,-1.82,1.14,0.50,2.20
15.280,-1.66,1.41,0.43,2.22
15.291,-1.48,1.65,0.33,2.24
15.300,-1.43,1.91,0.16,2.39
15.310,-1.30,2.10,0.13,2.47
15.321,-1.23,2.28,0.19,2.59
15.331,-1.28,2.43,0.18,2.75
15.341,-1.31,2.39,0.17,2.74
15.351,-1.34,2.32,0.13,2.69
15.361,-1.47,2.25,0.10,2.69
15.371,-1.53,2.15,0.07,2.64
15.381,-1.43,2.08,0.33,2.54
15.391,-1.20,1.96,0.74,2.42
15.401,-0.80,1.74,1.07,2.19
15.411,-0.57,1.48,1.12,1.94
15.421,-0.53,1.08,0.84,1.47
15.432,-0.51,0.55,0.33,0.82
15.442,-0.62,0.13,-0.13,0.65
15.452,-0.78,-0.25,-0.52,0.97
15.462,-0.96,-0.50,-0.71,1.30
15.472,-1.19,-0.64,-0.77,1.55
15.482,-1.36,-0.65,-0.71,1.67
15.492,-1.47,-0.69,-0.47,1.69
15.502,-1.53,-0.65,-0.15,1.67
15.512,-1.56,-0.57,0.10,1.67
15.522,-1.48,-0.45,0.39,1.60
15.532,-1.25,-0.23,0.64,1.43
15.542,-1.12,0.00,0.75,1.35
15.552,-1.02,0.15,0.72,1.26
15.562,-0.96,0.28,0.57,1.15
15.573,-0.95,0.41,0.40,1.11
15.583,-0.97,0.50,0.25,1.12
15.593,-0.91,0.37,0.22,1.01
15.603,-0.92,0.22,0.42,1.04
15.613,-0.99,-0.03,0.61,1.17
15.623,-1.03,-0.23,0.79,1.31
15.633,-1.03,-0.36,0.86,1.39
15.643,-1.02,-0.36,0.89,1.40
15.653,-1.06,-0.39,0.74,1.35
15.663,-1.15,-0.45,0.52,1.34
15.673,-1.28,-0.52,0.36,1.43
15.683,-1.33,-0.61,0.23,1.48
15.694,-1.33,-0.69,0.18,1.51
15.704,-1.38,-0.81,0.06,1.60
15.714,-1.40,-1.01,-0.02,1.73
15.724,-1.53,-1.25,-0.20,1.98
15.734,-1.57,-1.50,-0.40,2.21
15.744,-1.42,-1.66,-0.48,2.23
15.754,-1.17,-1.73,-0.43,2.13
15.764,-0.76,-1.59,-0.32,1.79
15.774,-0.35,-1.35,-0.21,1.41
15.784,-0.04,-1.09,-0.17,1.10
15.794,0.18,-0.70,-0.25,0.76
15.804,0.30,-0.39,-0.29,0.57
15.815,0.33,-0.24,-0.32,0.52
15.824,0.34,-0.02,-0.35,0.49
15.835,0.28,0.18,-0.25,0.41
15.845,0.23,0.34,-0.09,0.42
15.855,0.27,0.49,0.08,0.56
15.865,0.46,0.65,0.33,0.87
15.875,0.73,0.87,0.49,1.24
15.885,0.97,0.98,0.58,1.49
15.895,1.10,0.97,0.64,1.60
15.905,1.07,0.94,0.66,1.57
15.915,1.00,0.82,0.78,1.51
15.925,0.84,0.64,0.86,1.37
15.935,0.63,0.50,0.88,1.19
15.945,0.41,0.33,0.85,1.00
15.956,0.27,0.14,0.85,0.90
15.966,0.25,-0.01,0.86,0.90
15.976,0.36,-0.08,0.78,0.86
15.986,0.52,-0.09,0.63,0.82
15.996,0.75,-0.16,0.45,0.89
16.006,1.06,-0.17,0.25,1.10
16.016,1.31,-0.14,0.08,1.32
16.026,1.47,-0.20,-0.10,1.49
16.036,1.57,-0.27,-0.30,1.62
16.046,1.65,-0.29,-0.49,1.74
16.056,1.62,-0.35,-0.72,1.81
16.066,1.60,-0.45,-0.94,1.90
16.077,1.62,-0.48,-1.14,2.04
16.087,1.56,-0.44,-1.32,2.09
16.097,1.47,-0.45,-1.45,2.11
16.107,1.44,-0.48,-1.54,2.16
16.117,1.32,-0.42,-1.51,2.05
16.127,1.29,-0.38,-1.44,1.97
16.137,1.17,-0.32,-1.31,1.79
16.147,1.18,-0.27,-1.19,1.69
16.157,1.23,-0.08,-0.98,1.57
16.167,1.33,0.15,-0.71,1.51
16.177,1.43,0.36,-0.34,1.51
16.187,1.60,0.59,0.02,1.71
16.198,1.82,0.90,0.40,2.07
16.207,2.20,1.16,0.76,2.60
16.218,2.53,1.28,0.99,3.00
16.228,2.75,1.39,0.98,3.23
16.238,2.84,1.58,0.74,3.33
16.248,2.73,1.66,0.34,3.22
16.258,2.51,1.56,-0.16,2.96
16.268,2.26,1.54,-0.54,2.79
16.278,2.11,1.45,-0.64,2.64
16.288,1.91,1.28,-0.62,2.38
16.298,1.78,1.04,-0.49,2.12
16.308,1.80,0.79,-0.18,1.98
16.319,1.82,0.55,0.06,1.90
16.328,1.81,0.32,0.15,1.84
16.339,1.76,0.15,0.17,1.77
16.349,1.60,-0.03,0.15,1.60
16.359,1.38,-0.18,0.01,1.39
16.369,1.13,-0.32,-0.20,1.19
16.379,0.90,-0.46,-0.38,1.08
16.389,0.83,-0.47,-0.45,1.06
16.399,0.78,-0.43,-0.42,0.98
16.409,0.72,-0.47,-0.30,0.91
16.419,0.75,-0.57,-0.27,0.98
16.429,0.76,-0.63,-0.27,1.03
16.439,0.85,-0.64,-0.29,1.10
16.449,0.99,-0.55,-0.29,1.16
16.460,1.11,-0.51,-0.30,1.26
16.470,1.12,-0.45,-0.34,1.25
16.480,1.04,-0.40,-0.38,1.18
16.490,0.91,-0.35,-0.46,1.08
16.500,0.82,-0.33,-0.53,1.03
16.510,0.68,-0.31,-0.51,0.91
16.520,0.53,-0.32,-0.43,0.76
16.530,0.49,-0.39,-0.16,0.64
16.540,0.48,-0.43,0.19,0.67
16.550,0.38,-0.48,0.47,0.77
16.560,0.19,-0.51,0.61,0.82
16.570,0.19,-0.45,0.69,0.84
16.581,0.20,-0.34,0.69,0.79
16.590,0.21,-0.24,0.56,0.64
16.601,0.24,-0.12,0.43,0.51
16.610,0.24,-0.01,0.33,0.41
16.621,0.23,0.03,0.32,0.40
16.631,0.23,0.08,0.32,0.40
16.641,0.18,0.07,0.27,0.33
16.651,0.14,0.04,0.28,0.31
16.661,0.06,0.04,0.28,0.29
16.671,-0.01,0.02,0.22,0.22
16.681,-0.07,0.07,0.18,0.20
16.691,-0.11,0.11,0.12,0.19
16.702,-0.07,0.14,0.09,0.18
16.711,-0.03,0.13,0.05,0.14
16.722,-0.05,0.11,0.02,0.12
16.732,-0.06,-0.04,0.01,0.07
16.742,-0.10,-0.19,0.04,0.22
16.752,-0.14,-0.35,0.10,0.39
16.762,-0.17,-0.53,0.09,0.57
16.772,-0.21,-0.68,-0.01,0.72
16.782,-0.33,-0.78,-0.22,0.88
16.792,-0.42,-0.89,-0.49,1.10
16.802,-0.46,-0.99,-0.61,1.25
16.812,-0.46,-1.01,-0.63,1.28
16.822,-0.45,-0.98,-0.64,1.25
16.832,-0.46,-0.94,-0.68,1.25
16.843,-0.49,-0.86,-0.67,1.20
16.853,-0.60,-0.84,-0.61,1.19
16.863,-0.60,-0.75,-0.49,1.08
16.873,-0.60,-0.65,-0.43,0.99
16.883,-0.60,-0.57,-0.38,0.91
16.893,-0.58,-0.51,-0.41,0.88
16.903,-0.59,-0.44,-0.52,0.90
16.913,-0.62,-0.37,-0.65,0.97
16.923,-0.69,-0.31,-0.71,1.03
16.933,-0.79,-0.26,-0.63,1.04
16.943,-0.94,-0.16,-0.45,1.05
16.953,-1.03,-0.06,-0.17,1.05
16.964,-1.12,0.01,0.06,1.12
16.974,-1.10,0.09,0.37,1.16
16.984,-0.98,0.14,0.59,1.15
16.994,-0.79,0.24,0.67,1.06
17.004,-0.66,0.52,0.69,1.09
17.014,-0.49,0.84,0.63,1.16
17.024,-0.33,1.16,0.51,1.31
17.034,-0.28,1.36,0.39,1.45
17.044,-0.37,1.43,0.26,1.50
17.054,-0.45,1.31,0.20,1.40
17.064,-0.55,1.16,0.30,1.32
17.074,-0.66,1.06,0.57,1.37
17.085,-0.81,1.02,0.67,1.46
17.094,-0.98,1.14,0.52,1.59
17.105,-1.07,1.41,0.24,1.78
17.115,-1.01,1.82,-0.07,2.08
17.125,-0.79,2.22,-0.37,2.38
17.135,-0.53,2.47,-0.58,2.60
17.145,-0.32,2.49,-0.62,2.59
17.155,-0.14,2.44,-0.47,2.49
17.165,-0.14,2.25,-0.27,2.27
17.175,-0.38,1.92,-0.09,1.96
17.185,-0.82,1.52,0.16,1.73
17.195,-1.34,1.04,0.41,1.75
17.206,-1.85,0.58,0.49,2.00
17.215,-2.20,0.21,0.43,2.26
17.227,-2.40,-0.03,0.28,2.41
17.236,-2.47,-0.23,-0.01,2.48
17.246,-2.25,-0.30,-0.28,2.29
17.256,-1.95,-0.28,-0.46,2.03
17.266,-1.63,-0.23,-0.44,1.71
17.276,-1.31,-0.20,-0.32,1.36
17.286,-1.03,-0.25,-0.07,1.07
17.296,-0.92,-0.34,0.19,1.00
17.306,-0.87,-0.44,0.38,1.05
17.316,-0.88,-0.48,0.54,1.14
17.326,-0.94,-0.40,0.58,1.17
17.336,-0.98,-0.26,0.47,1.12
17.347,-1.07,-0.05,0.25,1.10
17.356,-1.18,0.06,0.03,1.18
17.367,-1.23,0.08,-0.13,1.24
17.377,-1.29,0.10,-0.12,1.30
17.387,-1.21,0.07,0.14,1.22
17.397,-1.16,-0.07,0.50,1.27
17.407,-1.13,-0.20,0.88,1.44
17.417,-1.15,-0.33,1.12,1.64
17.427,-1.24,-0.41,1.18,1.76
17.437,-1.33,-0.43,1.06,1.75
17.447,-1.40,-0.35,0.77,1.63
17.457,-1.42,-0.21,0.44,1.50
17.468,-1.32,-0.08,0.10,1.33
17.477,-1.27,0.05,-0.14,1.27
17.488,-1.15,0.14,-0.19,1.17
17.498,-1.00,0.19,-0.14,1.03
17.508,-0.87,0.17,0.03,0.89
17.518,-0.78,0.14,0.24,0.82
17.528,-0.62,0.15,0.44,0.78
17.538,-0.46,0.19,0.59,0.78
17.548,-0.21,0.23,0.67,0.74
17.558,0.01,0.32,0.66,0.73
17.568,0.26,0.39,0.59,0.75
17.578,0.39,0.42,0.44,0.72
17.588,0.42,0.30,0.21,0.56
17.598,0.38,0.17,0.04,0.42
17.609,0.33,0.08,0.00,0.34
17.619,0.31,0.01,0.11,0.33
17.629,0.36,-0.05,0.26,0.45
17.639,0.39,-0.04,0.38,0.55
17.649,0.35,-0.05,0.39,0.53
17.659,0.30,-0.12,0.25,0.41
17.669,0.19,-0.12,0.12,0.26
17.679,0.18,-0.20,0.11,0.29
17.689,0.16,-0.32,0.16,0.39
17.699,0.15,-0.43,0.27,0.53
17.709,0.21,-0.60,0.37,0.74
17.719,0.24,-0.73,0.45,0.89
17.730,0.27,-0.81,0.40,0.95
17.739,0.36,-0.87,0.30,0.99
17.750,0.41,-0.87,0.20,0.98
17.760,0.47,-0.84,0.12,0.97
17.770,0.48,-0.78,0.07,0.92
17.780,0.48,-0.72,0.05,0.87
17.790,0.44,-0.59,-0.01,0.74
17.800,0.42,-0.46,-0.07,0.62
17.810,0.45,-0.32,-0.06,0.55
17.820,0.50,-0.08,-0.04,0.51
17.830,0.67,0.25,-0.04,0.72
17.840,0.83,0.55,-0.04,1.00
17.851,1.01,0.80,-0.13,1.30
17.860,1.07,0.95,-0.21,1.45
17.871,1.18,1.00,-0.23,1.57
17.881,1.19,0.98,-0.23,1.56
17.891,1.13,0.81,-0.16,1.40
17.901,1.10,0.59,-0.09,1.26
17.911,1.06,0.42,-0.02,1.14
17.921,1.05,0.23,-0.05,1.07
17.931,1.18,0.09,-0.17,1.19
17.941,1.38,0.17,-0.39,1.44
17.951,1.64,0.33,-0.49,1.74
17.961,1.98,0.38,-0.57,2.09
17.972,2.14,0.38,-0.66,2.27
17.981,2.20,0.21,-0.79,2.35
17.992,2.23,0.07,-0.97,2.43
18.002,2.18,0.00,-1.16,2.47
18.012,2.14,-0.14,-1.39,2.56
18.022,2.05,-0.21,-1.59,2.61
18.032,1.98,-0.28,-1.75,2.66
18.042,2.01,-0.34,-1.68,2.64
18.052,2.18,-0.37,-1.41,2.62
18.062,2.38,-0.41,-1.03,2.62
18.072,2.55,-0.41,-0.62,2.65
18.082,2.68,-0.47,-0.24,2.74
18.092,2.69,-0.57,0.03,2.75
18.102,2.57,-0.69,0.23,2.68
18.113,2.40,-0.75,0.31,2.53
18.123,2.17,-0.65,0.20,2.28
18.133,2.03,-0.48,0.05,2.08
18.143,1.77,-0.33,-0.11,1.81
18.153,1.57,-0.34,-0.20,1.62
18.163,1.48,-0.39,-0.09,1.53
18.173,1.44,-0.38,0.20,1.50
18.183,1.41,-0.38,0.49,1.54
18.193,1.36,-0.42,0.63,1.55
18.203,1.17,-0.41,0.63,1.39
18.213,1.02,-0.42,0.56,1.24
18.223,0.86,-0.41,0.41,1.04
18.234,0.75,-0.41,0.25,0.89
18.243,0.69,-0.32,0.05,0.77
18.254,0.66,-0.24,-0.08,0.71
18.264,0.70,-0.20,-0.14,0.74
18.274,0.77,-0.15,-0.13,0.80
18.284,0.80,-0.13,-0.05,0.81
18.294,0.74,-0.15,0.01,0.76
18.304,0.66,-0.12,0.10,0.68
18.314,0.61,-0.14,0.22,0.67
18.324,0.55,-0.16,0.29,0.64
18.334,0.53,-0.15,0.34,0.65
18.344,0.44,-0.09,0.40,0.60
18.355,0.34,0.01,0.44,0.56
18.365,0.28,0.08,0.48,0.56
18.375,0.27,0.14,0.59,0.66
18.385,0.28,0.24,0.77,0.85
18.395,0.27,0.36,0.90,1.01
18.405,0.19,0.55,0.96,1.13
18.415,0.17,0.69,1.07,1.28
18.425,0.13,0.71,1.09,1.31
18.435,0.09,0.78,1.04,1.30
18.445,-0.03,0.76,0.82,1.12
18.455,-0.12,0.69,0.49,0.85
18.465,-0.16,0.65,0.18,0.70
18.476,-0.13,0.61,-0.09,0.63
18.485,-0.14,0.52,-0.30,0.62
18.496,-0.16,0.36,-0.46,0.60
18.506,-0.27,0.13,-0.49,0.58
18.516,-0.38,-0.12,-0.52,0.66
18.526,-0.57,-0.33,-0.60,0.89
18.536,-0.83,-0.45,-0.76,1.21
18.546,-1.13,-0.59,-0.94,1.59
18.556,-1.34,-0.69,-1.03,1.82
18.566,-1.46,-0.77,-0.96,1.91
18.576,-1.44,-0.80,-0.80,1.83
18.586,-1.29,-0.77,-0.63,1.63
18.596,-1.14,-0.73,-0.57,1.47
18.606,-1.07,-0.71,-0.64,1.43
18.617,-1.03,-0.66,-0.80,1.46
18.627,-1.08,-0.56,-1.00,1.57
18.637,-1.16,-0.32,-1.16,1.67
18.647,-1.23,-0.13,-1.16,1.70
18.657,-1.32,-0.10,-0.98,1.65
18.667,-1.40,-0.08,-0.63,1.54
18.677,-1.45,-0.02,-0.16,1.46
18.687,-1.38,-0.00,0.32,1.42
18.697,-1.32,0.05,0.69,1.49
18.707,-1.29,0.07,0.92,1.59
18.717,-1.25,0.09,1.08,1.65
18.727,-1.21,0.17,1.29,1.77
18.737,-1.16,0.27,1.48,1.90
18.748,-1.11,0.32,1.69,2.05
18.758,-1.09,0.37,1.86,2.19
18.768,-1.05,0.43,1.85,2.17
18.778,-1.05,0.58,1.64,2.03
18.788,-1.12,0.82,1.27,1.88
18.798,-1.21,1.02,0.81,1.77
18.808,-1.24,1.18,0.39,1.76
18.818,-1.29,1.33,0.08,1.85
18.828,-1.18,1.48,-0.21,1.91
18.838,-0.95,1.67,-0.40,1.96
18.848,-0.72,1.83,-0.55,2.05
18.858,-0.58,1.96,-0.88,2.23
18.868,-0.48,1.94,-1.27,2.37
18.879,-0.36,1.88,-1.65,2.53
18.889,-0.28,1.78,-1.87,2.60
18.899,-0.16,1.68,-1.91,2.55
18.909,-0.17,1.53,-1.92,2.46
18.919,-0.16,1.29,-1.78,2.20
18.929,-0.25,1.06,-1.40,1.77
18.939,-0.36,0.62,-1.10,1.31
18.949,-0.48,0.17,-0.80,0.95
18.959,-0.67,-0.16,-0.51,0.86
18.969,-0.93,-0.51,-0.43,1.14
18.979,-1.26,-0.73,-0.50,1.54
18.989,-1.52,-1.07,-0.77,2.02
19.000,-1.74,-1.10,-0.83,2.22
19.009,-1.88,-1.05,-0.84,2.31
19.020,-1.89,-1.10,-0.72,2.31
19.030,-1.85,-1.11,-0.55,2.22
19.040,-1.68,-1.03,-0.28,1.99
19.050,-1.43,-0.90,-0.02,1.69
19.060,-1.18,-0.81,0.15,1.44
19.070,-1.02,-0.73,0.22,1.27
19.080,-0.92,-0.61,0.30,1.15
19.090,-0.79,-0.57,0.42,1.06
19.100,-0.65,-0.42,0.43,0.89
19.110,-0.61,-0.24,0.50,0.83
19.121,-0.63,-0.18,0.51,0.83
19.130,-0.75,-0.09,0.52,0.92
19.141,-0.94,-0.02,0.61,1.12
19.151,-1.09,-0.14,0.72,1.32
19.161,-1.26,-0.17,0.90,1.56
19.171,-1.29,-0.15,0.95,1.61
19.181,-1.33,-0.17,0.91,1.62
19.191,-1.14,-0.09,0.89,1.45
19.201,-1.00,0.11,0.79,1.28
19.211,-0.92,0.31,0.44,1.06
19.221,-0.91,0.40,0.17,1.01
19.231,-1.01,0.30,0.07,1.06
19.241,-1.01,0.08,0.10,1.02
19.251,-0.95,-0.03,0.22,0.98
19.262,-0.83,-0.06,0.21,0.86
19.272,-0.68,-0.09,0.19,0.71
19.282,-0.53,-0.08,0.22,0.58
19.292,-0.40,-0.01,0.22,0.46
19.302,-0.26,0.05,0.14,0.30
19.312,-0.24,0.05,0.04,0.24
19.322,-0.23,0.03,-0.01,0.23
19.332,-0.18,0.05,-0.04,0.19
19.342,-0.09,0.11,0.01,0.14
19.352,0.03,0.10,0.13,0.17
19.362,0.18,0.01,0.31,0.36
19.372,0.37,-0.08,0.43,0.58
19.383,0.49,-0.12,0.46,0.69
19.393,0.53,-0.20,0.35,0.66
19.403,0.45,-0.26,0.19,0.55
19.413,0.34,-0.39,0.05,0.52
19.423,0.24,-0.45,0.03,0.51
19.433,0.16,-0.59,0.09,0.62
19.443,0.18,-0.73,0.17,0.77
19.453,0.26,-0.84,0.31,0.93
19.463,0.38,-0.98,0.35,1.11
19.473,0.52,-1.00,0.29,1.17
19.483,0.64,-0.95,0.14,1.15
19.493,0.79,-0.83,-0.14,1.16
19.504,0.86,-0.65,-0.39,1.15
19.514,0.90,-0.46,-0.64,1.19
19.524,0.98,-0.27,-0.76,1.27
19.534,1.09,-0.08,-0.74,1.33
19.544,1.28,0.09,-0.63,1.43
19.554,1.51,0.19,-0.49,1.60
19.564,1.65,0.29,-0.31,1.70
19.574,1.72,0.30,-0.22,1.76
19.584,1.79,0.26,-0.16,1.82
19.594,1.75,0.30,-0.08,1.78
19.604,1.61,0.27,-0.10,1.63
19.614,1.40,0.18,-0.21,1.43
19.625,1.18,0.11,-0.32,1.23
19.634,0.98,0.01,-0.44,1.08
19.645,0.84,-0.09,-0.55,1.01
19.655,0.80,-0.12,-0.66,1.04
19.665,0.87,-0.11,-0.71,1.12
19.675,0.97,-0.08,-0.73,1.22
19.685,1.06,-0.03,-0.78,1.31
19.695,1.02,0.01,-0.76,1.27
19.705,0.91,-0.02,-0.71,1.16
19.715,0.83,0.00,-0.66,1.06
19.725,0.83,0.12,-0.59,1.02
19.735,1.03,0.21,-0.47,1.15
19.745,1.19,0.32,-0.46,1.32
19.755,1.30,0.30,-0.55,1.44
19.766,1.48,0.30,-0.74,1.68
19.776,1.64,0.36,-0.89,1.90
19.786,1.62,0.31,-1.01,1.94
19.796,1.81,0.32,-0.95,2.06
19.806,1.93,0.32,-0.85,2.13
19.816,1.98,0.21,-0.81,2.15
19.826,1.89,0.12,-0.73,2.03
19.836,1.80,0.05,-0.60,1.90
19.846,1.74,-0.01,-0.39,1.79
19.856,1.76,-0.00,-0.14,1.76
19.866,1.75,0.07,0.05,1.75
19.876,1.75,0.03,0.18,1.75
19.887,1.72,0.06,0.30,1.74
19.896,1.66,0.07,0.32,1.69
19.907,1.70,0.04,0.41,1.75
19.917,1.87,0.12,0.58,1.96
19.927,2.05,0.25,0.67,2.17
19.937,2.09,0.31,0.62,2.21
19.947,2.00,0.29,0.50,2.08
19.957,1.87,0.17,0.35,1.91
19.967,1.64,0.05,0.23,1.66
19.977,1.43,-0.11,0.26,1.45
19.987,1.19,-0.27,0.30,1.26
19.997,0.96,-0.39,0.25,1.07
20.007,0.71,-0.49,0.13,0.88
20.018,0.54,-0.56,-0.06,0.78
20.028,0.51,-0.55,-0.19,0.77
20.038,0.52,-0.47,-0.22,0.73
20.048,0.58,-0.44,-0.27,0.78
20.058,0.65,-0.38,-0.21,0.78
20.068,0.67,-0.33,-0.11,0.75
20.078,0.68,-0.41,-0.09,0.80
20.088,0.67,-0.46,0.04,0.81
20.098,0.62,-0.48,0.14,0.80
20.108,0.61,-0.46,0.18,0.79
20.118,0.55,-0.45,0.12,0.72
20.129,0.52,-0.40,0.03,0.66
20.138,0.54,-0.31,-0.09,0.63
20.149,0.56,-0.21,-0.18,0.63
20.159,0.59,-0.13,-0.27,0.66
20.169,0.56,-0.12,-0.36,0.67
20.179,0.43,-0.06,-0.40,0.59
20.189,0.40,0.05,-0.42,0.58
20.199,0.43,0.11,-0.38,0.59
20.209,0.47,0.22,-0.28,0.59
20.219,0.44,0.26,-0.22,0.56
20.229,0.39,0.32,-0.32,0.60
20.239,0.29,0.39,-0.45,0.66
20.249,0.22,0.40,-0.57,0.73
20.259,0.15,0.42,-0.60,0.75
20.270,0.14,0.36,-0.47,0.61
20.280,0.14,0.28,-0.31,0.45
20.290,0.02,0.16,-0.22,0.27
20.300,-0.18,-0.02,-0.16,0.24
20.310,-0.33,-0.24,-0.13,0.42
20.320,-0.43,-0.43,-0.06,0.61
20.330,-0.63,-0.53,-0.06,0.82
20.340,-0.88,-0.66,-0.16,1.11
20.350,-1.12,-0.74,-0.33,1.38
20.360,-1.34,-0.73,-0.36,1.57
20.370,-1.48,-0.71,-0.34,1.68
20.380,-1.50,-0.73,-0.18,1.68
20.391,-1.40,-0.70,0.04,1.57
20.401,-1.26,-0.67,0.22,1.45
20.411,-1.17,-0.66,0.23,1.37
20.421,-1.08,-0.63,0.09,1.25
20.431,-0.89,-0.46,-0.01,1.00
20.441,-0.78,-0.33,-0.13,0.86
20.451,-0.77,-0.25,-0.31,0.86
20.461,-0.69,-0.12,-0.40,0.80
20.471,-0.67,0.01,-0.44,0.80
20.481,-0.66,0.10,-0.27,0.72
20.491,-0.67,0.12,0.03,0.68
20.501,-0.68,0.15,0.40,0.80
20.511,-0.71,0.18,0.89,1.15
20.521,-0.76,0.21,1.38,1.58
20.532,-0.79,0.17,1.71,1.90
20.542,-0.90,0.20,1.99,2.19
20.552,-1.01,0.27,2.10,2.35
20.562,-1.11,0.38,2.02,2.34
20.572,-1.16,0.55,1.82,2.23
20.582,-1.17,0.74,1.44,2.00
20.592,-1.14,0.88,0.94,1.72
20.602,-1.03,1.07,0.45,1.55
20.612,-0.82,1.26,0.05,1.51
20.622,-0.62,1.31,-0.16,1.46
20.632,-0.30,1.30,-0.28,1.36
20.642,-0.21,1.26,-0.45,1.36
20.653,-0.26,1.15,-0.74,1.39
20.663,-0.21,1.12,-1.07,1.56
20.673,-0.30,1.12,-1.43,1.84
20.683,-0.47,1.10,-1.72,2.09
20.693,-0.72,1.07,-1.92,2.31
20.703,-1.00,1.00,-1.90,2.37
20.713,-1.26,0.85,-1.61,2.21
20.723,-1.42,0.64,-1.12,1.92
20.733,-1.58,0.40,-0.59,1.73
20.743,-1.76,0.18,-0.23,1.78
20.753,-1.98,0.04,-0.00,1.98
20.763,-2.14,-0.06,0.11,2.14
20.774,-2.27,-0.01,0.12,2.28
20.784,-2.31,0.07,0.13,2.31
20.794,-2.19,0.14,0.23,2.21
20.804,-1.98,0.20,0.29,2.02
20.814,-1.77,0.27,0.41,1.84
20.824,-1.59,0.30,0.51,1.70
20.834,-1.42,0.28,0.66,1.59
20.844,-1.26,0.28,0.85,1.54
20.854,-1.09,0.27,1.02,1.52
20.864,-1.00,0.24,1.07,1.49
20.874,-1.02,0.16,1.03,1.45
20.884,-0.99,0.06,0.87,1.32
20.895,-0.99,0.03,0.71,1.22
20.904,-0.96,-0.06,0.52,1.09
20.915,-0.83,-0.09,0.29,0.88
20.925,-0.86,-0.12,0.05,0.87
20.935,-0.89,-0.20,-0.13,0.92
20.945,-0.92,-0.31,-0.24,1.00
20.955,-1.03,-0.42,-0.25,1.14
20.965,-1.10,-0.52,-0.25,1.24
20.975,-1.22,-0.56,-0.20,1.35
20.985,-1.37,-0.63,-0.15,1.51
20.995,-1.49,-0.72,-0.18,1.67
21.005,-1.59,-0.73,-0.14,1.76
21.016,-1.61,-0.72,-0.09,1.76
21.025,-1.54,-0.61,-0.16,1.67
21.036,-1.51,-0.45,-0.22,1.59
21.046,-1.48,-0.40,-0.35,1.57
21.056,-1.39,-0.29,-0.40,1.48
21.066,-1.25,-0.18,-0.30,1.30
21.076,-1.04,-0.06,-0.12,1.05
21.086,-0.86,0.04,0.08,0.87
21.096,-0.73,0.10,0.22,0.77
21.106,-0.66,0.15,0.31,0.74
21.116,-0.52,0.15,0.46,0.71
21.126,-0.32,0.28,0.59,0.73
21.136,-0.15,0.50,0.62,0.81
21.146,-0.08,0.59,0.50,0.77
21.157,-0.02,0.65,0.33,0.74
21.167,0.11,0.71,0.27,0.77
21.177,0.34,0.84,0.27,0.95
21.187,0.58,0.90,0.32,1.11
21.197,0.68,0.86,0.31,1.14
21.207,0.68,0.78,0.26,1.07
21.217,0.58,0.66,0.21,0.91
21.227,0.43,0.50,0.22,0.70
21.237,0.27,0.26,0.25,0.45
21.247,0.19,0.06,0.35,0.40
21.257,0.21,-0.15,0.49,0.55
21.267,0.29,-0.26,0.68,0.79
21.278,0.48,-0.36,0.80,1.00
21.287,0.60,-0.44,0.75,1.06
21.298,0.70,-0.48,0.57,1.02
21.308,0.76,-0.50,0.32,0.97
21.318,0.77,-0.49,-0.01,0.91
21.328,0.79,-0.44,-0.31,0.95
21.338,0.79,-0.39,-0.56,1.04
21.348,0.85,-0.28,-0.74,1.16
21.358,0.86,-0.14,-0.81,1.19
21.368,0.92,-0.07,-0.85,1.26
21.378,1.04,-0.03,-0.79,1.31
21.388,1.14,-0.00,-0.67,1.32
21.399,1.22,-0.02,-0.57,1.35
21.408,1.20,-0.08,-0.51,1.31
21.419,1.14,-0.11,-0.47,1.24
21.429,1.02,-0.20,-0.46,1.13
21.439,0.95,-0.28,-0.47,1.10
21.449,0.88,-0.32,-0.55,1.08
21.459,0.82,-0.29,-0.67,1.10
21.469,0.78,-0.30,-0.88,1.21
21.479,0.72,-0.24,-1.06,1.30
21.489,0.81,-0.08,-0.96,1.26
21.499,1.15,0.00,-0.77,1.39
21.509,1.49,0.18,-0.69,1.65
21.519,1.68,0.34,-0.76,1.88
21.529,1.87,0.51,-0.97,2.17
21.540,1.82,0.67,-1.19,2.28
21.550,1.60,0.75,-1.45,2.29
21.560,1.47,0.90,-1.68,2.40
21.570,1.44,1.06,-1.84,2.57
21.580,1.52,1.10,-1.94,2.69
21.590,1.69,1.09,-1.75,2.66
21.600,2.06,0.85,-1.31,2.59
21.610,2.39,0.50,-0.62,2.52
21.620,2.66,0.10,0.04,2.67
21.630,2.89,-0.24,0.48,2.94
21.640,2.85,-0.50,0.65,2.97
21.650,2.68,-0.63,0.58,2.82
21.661,2.43,-0.73,0.29,2.56
21.670,2.11,-0.89,-0.07,2.29
21.681,1.69,-1.00,-0.41,2.00
21.691,1.48,-0.97,-0.60,1.87
21.701,1.37,-0.88,-0.75,1.79
21.711,1.26,-0.84,-0.94,1.78
21.721,1.24,-0.81,-1.01,1.80
21.731,1.26,-0.77,-0.93,1.74
21.741,1.32,-0.77,-0.75,1.70
21.751,1.41,-0.71,-0.51,1.66
21.761,1.46,-0.62,-0.22,1.60
21.771,1.56,-0.55,0.05,1.66
21.782,1.67,-0.38,0.33,1.74
21.792,1.61,-0.32,0.51,1.72
21.802,1.47,-0.36,0.58,1.62
21.812,1.39,-0.35,0.67,1.58
21.822,1.30,-0.34,0.74,1.53
21.832,1.21,-0.41,0.75,1.48
21.842,1.14,-0.47,0.68,1.41
21.852,1.02,-0.52,0.51,1.26
21.862,0.96,-0.59,0.29,1.16
21.872,0.83,-0.61,-0.00,1.03
21.882,0.70,-0.68,-0.28,1.01
21.892,0.64,-0.71,-0.45,1.06
21.902,0.68,-0.63,-0.60,1.11
21.912,0.72,-0.57,-0.73,1.17
21.923,0.73,-0.45,-0.85,1.21
21.933,0.74,-0.35,-0.98,1.28
21.943,0.74,-0.29,-0.96,1.25
21.953,0.73,-0.26,-0.81,1.12
21.963,0.73,-0.23,-0.61,0.98
21.973,0.70,-0.18,-0.46,0.86
21.983,0.62,-0.16,-0.36,0.74
21.993,0.51,-0.08,-0.26,0.58
22.003,0.40,-0.02,-0.26,0.48
22.013,0.28,0.08,-0.35,0.46
22.023,0.18,0.24,-0.45,0.54
22.033,0.11,0.36,-0.52,0.64
22.044,0.09,0.52,-0.45,0.69
22.053,0.15,0.60,-0.27,0.68
22.064,0.20,0.59,0.00,0.63
22.074,0.17,0.54,0.26,0.62
22.084,0.12,0.46,0.46,0.66
22.094,-0.03,0.35,0.57,0.67
22.104,-0.31,0.23,0.51,0.64
22.114,-0.66,0.13,0.37,0.77
22.124,-0.96,0.08,0.23,0.99
22.134,-1.10,0.09,0.12,1.11
22.144,-1.26,0.08,0.02,1.27
22.154,-1.32,0.07,0.02,1.32
22.165,-1.28,0.09,0.08,1.28
22.174,-1.21,0.14,0.13,1.22
22.185,-1.07,0.22,0.10,1.10
22.195,-1.01,0.37,0.03,1.08
22.205,-0.98,0.45,-0.10,1.08
22.215,-1.00,0.52,-0.24,1.15
22.225,-1.05,0.57,-0.33,1.24
22.235,-1.04,0.50,-0.31,1.19
22.245,-0.94,0.48,-0.15,1.06
22.255,-0.84,0.40,0.16,0.94
22.265,-0.74,0.19,0.45,0.89
22.275,-0.73,0.01,0.70,1.01
22.285,-0.70,-0.14,0.89,1.14
22.295,-0.67,-0.26,0.98,1.22
22.306,-0.75,-0.42,1.08,1.38
22.316,-0.87,-0.49,1.11,1.49
22.326,-0.95,-0.52,1.18,1.60
22.336,-1.13,-0.45,1.23,1.72
22.346,-1.35,-0.30,1.12,1.78
22.356,-1.66,-0.08,0.83,1.86
22.366,-1.99,0.27,0.39,2.05
22.376,-2.20,0.74,-0.14,2.32
22.386,-2.21,1.20,-0.46,2.56
22.396,-2.00,1.64,-0.51,2.63
22.406,-1.56,2.03,-0.41,2.60
22.416,-1.12,2.26,-0.30,2.54
22.427,-0.73,2.29,-0.28,2.42
22.436,-0.45,2.19,-0.14,2.24
22.447,-0.17,2.02,0.05,2.03
22.457,-0.07,1.79,0.12,1.80
22.467,-0.24,1.51,-0.00,1.53
22.477,-0.60,1.19,-0.20,1.35
22.487,-0.87,0.93,-0.32,1.31
22.497,-1.14,0.76,-0.25,1.39
22.507,-1.37,0.44,-0.24,1.46
22.517,-1.39,0.15,-0.13,1.40
22.527,-1.33,-0.08,0.11,1.34
22.537,-1.24,-0.35,0.27,1.32
22.547,-1.17,-0.58,0.31,1.34
22.558,-1.08,-0.63,0.26,1.28
22.568,-1.20,-0.65,0.08,1.36
22.578,-1.34,-0.59,-0.26,1.49
22.588,-1.57,-0.58,-0.51,1.75
22.598,-1.74,-0.56,-0.81,2.00
22.608,-1.82,-0.47,-0.95,2.11
22.618,-1.70,-0.37,-0.83,1.93
22.628,-1.51,-0.25,-0.57,1.64
22.638,-1.35,-0.24,-0.30,1.40
22.648,-1.17,-0.19,-0.01,1.18
22.658,-0.98,-0.12,0.24,1.01
22.668,-0.78,-0.06,0.44,0.90
22.678,-0.63,-0.07,0.60,0.87
22.689,-0.58,-0.08,0.69,0.91
22.699,-0.61,-0.18,0.70,0.94
22.709,-0.64,-0.31,0.65,0.97
22.719,-0.74,-0.41,0.61,1.04
22.729,-0.76,-0.48,0.55,1.05
22.739,-0.80,-0.52,0.43,1.04
22.749,-0.89,-0.62,0.25,1.12
22.759,-0.97,-0.66,0.05,1.18
22.769,-1.08,-0.69,-0.08,1.28
22.779,-1.18,-0.74,-0.20,1.41
22.789,-1.21,-0.76,-0.24,1.45
22.799,-1.32,-0.70,-0.23,1.51
22.810,-1.40,-0.69,-0.28,1.58
22.820,-1.46,-0.67,-0.32,1.64
22.830,-1.62,-0.65,-0.38,1.79
22.840,-1.73,-0.63,-0.44,1.89
22.850,-1.77,-0.58,-0.40,1.90
22.860,-1.70,-0.50,-0.33,1.81
22.870,-1.52,-0.45,-0.15,1.60
22.880,-1.27,-0.33,0.14,1.32
22.890,-1.04,-0.21,0.31,1.10
22.900,-0.81,-0.11,0.40,0.91
22.910,-0.56,0.04,0.49,0.74
22.920,-0.24,0.24,0.45,0.57
22.931,-0.00,0.42,0.32,0.53
22.941,0.15,0.58,0.16,0.62
22.951,0.28,0.72,0.03,0.77
22.961,0.46,0.83,-0.02,0.95
22.971,0.68,0.91,0.04,1.13
22.981,0.95,0.96,0.21,1.36
22.991,1.15,0.85,0.26,1.46
23.001,1.28,0.70,0.28,1.49
23.011,1.28,0.58,0.22,1.42
23.021,1.20,0.43,0.15,1.28
23.031,0.99,0.26,0.12,1.03
23.041,0.76,0.09,0.21,0.79
23.051,0.58,-0.08,0.28,0.65
23.061,0.50,-0.21,0.40,0.68
23.072,0.54,-0.33,0.50,0.80
23.082,0.64,-0.39,0.54,0.92
23.092,0.81,-0.43,0.49,1.04
23.102,1.03,-0.46,0.48,1.23
23.112,1.32,-0.45,0.49,1.48
23.122,1.57,-0.47,0.56,1.73
23.132,1.70,-0.48,0.60,1.86
23.142,1.70,-0.51,0.47,1.83
23.152,1.59,-0.56,0.26,1.71
23.162,1.42,-0.59,0.03,1.54
23.173,1.26,-0.68,-0.21,1.45
23.182,1.13,-0.80,-0.38,1.44
23.193,1.06,-0.79,-0.45,1.40
23.203,1.07,-0.83,-0.48,1.44
23.213,1.10,-0.81,-0.58,1.48
23.223,1.11,-0.75,-0.71,1.51
23.233,1.05,-0.77,-0.79,1.52
23.243,1.12,-0.78,-0.80,1.58
23.253,1.32,-0.65,-0.68,1.62
23.263,1.36,-0.57,-0.58,1.59
23.273,1.34,-0.61,-0.53,1.57
23.283,1.39,-0.61,-0.45,1.58
23.293,1.52,-0.53,-0.36,1.65
23.303,1.67,-0.42,-0.26,1.74
23.314,1.81,-0.32,-0.25,1.86
23.323,1.87,-0.25,-0.29,1.91
23.334,1.88,-0.15,-0.33,1.92
23.346,1.91,-0.03,-0.26,1.93
23.354,1.95,0.11,-0.12,1.96
23.364,1.93,0.30,0.00,1.96
23.374,1.95,0.48,0.06,2.01
23.384,2.02,0.68,0.04,2.13
23.394,2.04,0.89,-0.04,2.23
23.404,2.11,0.99,-0.14,2.34
23.414,2.20,1.03,-0.20,2.44
23.424,2.31,1.01,-0.17,2.53
23.434,2.44,0.90,-0.03,2.60
23.444,2.56,0.82,0.18,2.70
23.455,2.65,0.76,0.36,2.78
23.465,2.55,0.62,0.39,2.65
23.475,2.25,0.38,0.35,2.31
23.485,1.96,0.13,0.38,2.00
23.495,1.74,-0.11,0.49,1.81
23.505,1.56,-0.28,0.61,1.70
23.515,1.37,-0.45,0.61,1.57
23.525,1.24,-0.62,0.51,1.48
23.535,1.17,-0.67,0.42,1.41
23.545,1.16,-0.71,0.36,1.41
23.556,1.18,-0.78,0.28,1.45
23.565,1.21,-0.75,0.25,1.45
23.576,1.17,-0.71,0.22,1.38
23.585,1.09,-0.75,0.18,1.33
23.596,1.05,-0.71,0.19,1.28
23.606,0.97,-0.63,0.26,1.18
23.616,0.93,-0.57,0.37,1.15
23.626,0.96,-0.51,0.58,1.23
23.636,0.99,-0.45,0.75,1.31
23.646,0.95,-0.38,0.81,1.30
23.656,0.85,-0.35,0.74,1.18
23.666,0.77,-0.32,0.57,1.01
23.676,0.59,-0.30,0.34,0.74
23.686,0.34,-0.33,0.08,0.48
23.697,0.22,-0.38,-0.14,0.46
23.706,-0.01,-0.41,-0.23,0.48
23.717,-0.11,-0.37,-0.27,0.47
23.727,-0.24,-0.36,-0.18,0.47
23.737,-0.22,-0.38,-0.07,0.44
23.747,-0.17,-0.41,0.12,0.46
23.757,-0.14,-0.49,0.27,0.58
23.767,-0.03,-0.51,0.38,0.63
23.777,0.07,-0.48,0.49,0.68
23.787,0.17,-0.43,0.41,0.62
23.797,0.16,-0.30,0.16,0.38
23.807,0.10,-0.18,-0.16,0.26
23.818,-0.00,-0.16,-0.43,0.46
23.827,-0.10,-0.01,-0.57,0.58
23.838,-0.05,0.18,-0.52,0.56
23.848,-0.01,0.35,-0.47,0.58
23.858,0.02,0.48,-0.45,0.66
23.868,-0.04,0.52,-0.47,0.70
23.878,-0.09,0.51,-0.46,0.69
23.888,-0.18,0.56,-0.29,0.66
23.898,-0.26,0.50,-0.13,0.58
23.908,-0.45,0.44,0.03,0.63
23.918,-0.85,0.33,0.10,0.92
23.930,-1.22,0.11,0.10,1.22
23.939,-1.53,-0.08,0.21,1.55
23.949,-1.68,-0.21,0.42,1.75
23.959,-1.73,-0.33,0.63,1.87
23.969,-1.69,-0.40,0.83,1.92
23.979,-1.60,-0.44,0.88,1.88
23.989,-1.55,-0.46,0.84,1.83
23.999,-1.44,-0.41,0.68,1.64
24.009,-1.32,-0.31,0.50,1.45
24.019,-1.23,-0.22,0.28,1.29
24.029,-1.18,-0.10,0.09,1.19
24.039,-1.12,0.05,-0.15,1.13
24.049,-1.19,0.14,-0.52,1.31
24.059,-1.28,0.22,-0.81,1.53
24.070,-1.34,0.34,-1.00,1.70
24.080,-1.35,0.49,-0.98,1.74
24.090,-1.31,0.61,-0.72,1.61
24.100,-1.29,0.66,-0.35,1.50
24.110,-1.34,0.69,0.01,1.51
24.120,-1.53,0.70,0.34,1.71
24.130,-1.62,0.75,0.66,1.91
24.140,-1.69,0.86,0.82,2.07
24.150,-1.78,0.96,0.93,2.23
24.160,-1.80,1.01,1.07,2.33
24.170,-1.68,1.06,1.12,2.28
24.180,-1.47,1.15,1.04,2.14
24.190,-1.17,1.33,0.85,1.97
24.201,-0.97,1.49,0.56,1.87
24.210,-0.92,1.57,0.19,1.83
24.221,-0.81,1.75,-0.18,1.93
24.231,-0.81,1.77,-0.43,1.99
24.241,-0.87,1.59,-0.57,1.90
24.251,-0.94,1.44,-0.61,1.82
24.261,-1.10,1.26,-0.68,1.81
24.271,-1.36,1.14,-0.88,1.98
24.281,-1.66,0.98,-1.02,2.18
24.291,-1.90,0.94,-1.01,2.35
24.301,-2.09,0.89,-0.75,2.39
24.311,-2.09,0.81,-0.31,2.27
24.322,-2.18,0.50,0.25,2.25
24.331,-1.72,0.72,0.53,1.94
24.342,-1.54,0.53,0.92,1.87
24.352,-1.58,0.11,1.08,1.92
24.362,-1.45,-0.07,1.10,1.82
24.372,-1.56,-0.11,0.89,1.80
24.382,-1.72,-0.17,0.49,1.80
24.392,-1.91,-0.18,0.12,1.92
24.402,-2.06,-0.15,-0.08,2.07
24.412,-2.12,-0.13,-0.07,2.13
24.422,-2.04,-0.16,0.09,2.05
24.432,-1.92,-0.22,0.32,1.96
24.442,-1.70,-0.28,0.61,1.83
24.452,-1.44,-0.31,0.91,1.73
24.463,-1.22,-0.33,1.14,1.70
24.473,-1.13,-0.34,1.22,1.69
24.483,-0.98,-0.23,1.15,1.53
24.493,-0.97,-0.15,0.91,1.34
24.503,-0.89,-0.03,0.66,1.11
24.513,-0.82,0.04,0.45,0.93
24.523,-0.70,0.04,0.36,0.79
24.533,-0.65,-0.00,0.35,0.74
24.543,-0.60,-0.09,0.36,0.71
24.553,-0.62,-0.21,0.33,0.73
24.563,-0.68,-0.34,0.26,0.81
24.573,-0.75,-0.47,0.26,0.92
24.584,-0.88,-0.51,0.14,1.03
24.594,-1.10,-0.59,0.02,1.25
24.604,-1.23,-0.67,-0.02,1.40
24.614,-1.35,-0.61,-0.03,1.48
24.624,-1.41,-0.65,0.01,1.55
24.634,-1.43,-0.74,0.03,1.61
24.644,-1.51,-0.81,0.08,1.71
24.654,-1.52,-0.80,0.11,1.72
24.664,-1.58,-0.73,0.08,1.74
24.674,-1.54,-0.65,0.06,1.68
24.684,-1.42,-0.44,0.01,1.48
24.694,-1.34,-0.29,0.04,1.37
24.704,-1.17,-0.11,0.12,1.18
24.715,-1.02,-0.01,0.18,1.04
24.725,-0.78,0.17,0.22,0.82
24.735,-0.56,0.34,0.30,0.72
24.745,-0.19,0.44,0.31,0.56
24.755,0.09,0.50,0.32,0.60
24.765,0.27,0.56,0.22,0.67
24.775,0.36,0.53,0.05,0.64
24.785,0.40,0.50,-0.08,0.65
24.795,0.45,0.45,-0.14,0.65
24.805,0.47,0.38,-0.18,0.63
24.815,0.47,0.25,-0.14,0.55
24.825,0.49,0.15,0.00,0.51
24.835,0.54,-0.01,0.14,0.55
24.846,0.59,-0.19,0.39,0.74
24.856,0.65,-0.35,0.57,0.93
24.866,0.81,-0.49,0.69,1.18
24.876,1.03,-0.57,0.67,1.36
24.886,1.09,-0.65,0.46,1.35
24.896,1.06,-0.68,0.14,1.27
24.906,1.05,-0.71,-0.27,1.29
24.916,1.05,-0.64,-0.58,1.36
24.926,1.05,-0.55,-0.80,1.43
24.936,0.97,-0.51,-1.01,1.49
24.947,0.83,-0.51,-1.15,1.51
24.956,0.70,-0.55,-1.22,1.51
24.966,0.67,-0.48,-1.11,1.38
24.976,0.65,-0.47,-0.89,1.20
24.987,0.71,-0.40,-0.64,1.04
24.996,0.84,-0.35,-0.42,1.00
25.007,0.98,-0.25,-0.24,1.04
25.017,1.09,-0.11,-0.23,1.12
25.027,1.23,0.01,-0.20,1.24
25.037,1.38,0.10,-0.32,1.42
25.047,1.46,0.19,-0.46,1.54
25.057,1.42,0.21,-0.61,1.56
25.067,1.36,0.22,-0.78,1.58
25.077,1.14,0.25,-0.82,1.43
25.087,1.02,0.25,-0.75,1.29
25.097,1.02,0.19,-0.56,1.18
25.108,1.04,0.09,-0.37,1.11
25.118,1.09,0.05,-0.28,1.12
25.128,1.15,0.10,-0.19,1.17
25.138,1.31,0.26,-0.14,1.34
25.148,1.33,0.45,-0.23,1.42
25.158,1.33,0.53,-0.38,1.48
25.168,1.34,0.64,-0.54,1.58
25.178,1.38,0.80,-0.64,1.72
25.188,1.49,0.98,-0.67,1.90
25.198,1.70,1.18,-0.62,2.16
25.209,1.86,1.23,-0.45,2.28
25.218,2.01,1.19,-0.02,2.34
25.229,2.27,0.86,0.32,2.44
25.239,2.42,0.49,0.63,2.55
25.249,2.47,0.14,0.77,2.59
25.259,2.39,-0.23,0.51,2.45
25.269,2.16,-0.42,-0.02,2.20
25.279,1.89,-0.58,-0.60,2.07
25.289,1.67,-0.72,-1.06,2.10
25.299,1.49,-0.68,-1.39,2.15
25.309,1.32,-0.69,-1.62,2.20
25.319,1.16,-0.67,-1.77,2.21
25.329,1.01,-0.69,-1.84,2.21
25.339,0.87,-0.70,-1.84,2.15
25.350,0.78,-0.71,-1.72,2.02
25.360,0.75,-0.64,-1.52,1.81
25.370,0.75,-0.56,-1.27,1.57
25.380,0.81,-0.51,-0.97,1.36
25.390,0.88,-0.43,-0.69,1.20
25.400,0.92,-0.34,-0.30,1.03
25.410,1.03,-0.41,-0.21,1.13
25.420,1.00,-0.37,-0.14,1.08
25.430,0.99,-0.31,-0.04,1.04
25.440,0.98,-0.38,0.03,1.05
25.450,0.87,-0.49,0.00,1.00
25.460,0.69,-0.58,-0.00,0.90
25.470,0.46,-0.71,-0.07,0.85
25.480,0.26,-0.85,-0.14,0.90
25.491,0.12,-0.96,-0.16,0.98
25.501,0.07,-0.99,-0.18,1.01
25.511,-0.08,-1.05,-0.17,1.07
25.521,-0.06,-1.03,-0.06,1.04
25.531,-0.10,-1.05,0.08,1.06
25.541,-0.03,-0.99,0.17,1.01
25.551,0.04,-0.93,0.19,0.95
25.561,0.08,-0.86,0.15,0.87
25.571,0.25,-0.76,0.09,0.80
25.581,0.36,-0.61,-0.02,0.71
25.591,0.44,-0.58,-0.16,0.74
25.601,0.53,-0.51,-0.22,0.77
25.612,0.58,-0.35,-0.27,0.73
25.622,0.56,-0.23,-0.28,0.66
25.632,0.52,-0.16,-0.33,0.64
25.642,0.49,-0.09,-0.41,0.65
25.652,0.42,0.05,-0.34,0.54
25.662,0.34,0.12,-0.29,0.46
25.672,0.30,0.23,-0.15,0.40
25.682,0.02,0.31,-0.01,0.31
25.692,-0.26,0.30,0.00,0.40
25.702,-0.60,0.26,0.09,0.66
25.712,-0.77,0.28,0.19,0.84
25.722,-0.89,0.30,0.34,1.00
25.733,-0.89,0.35,0.58,1.12
25.743,-0.76,0.36,0.87,1.21
25.753,-0.72,0.39,1.19,1.44
25.763,-0.64,0.36,1.44,1.61
25.773,-0.65,0.33,1.52,1.68
25.783,-0.73,0.35,1.47,1.68
25.793,-0.82,0.30,1.50,1.73
25.803,-0.92,0.21,1.35,1.65
25.813,-1.11,0.16,1.17,1.62
25.823,-1.33,0.13,0.92,1.63
25.833,-1.44,0.12,0.78,1.64
25.843,-1.52,0.14,0.70,1.67
25.854,-1.57,0.16,0.59,1.68
25.863,-1.65,0.18,0.43,1.71
25.874,-1.70,0.27,0.33,1.75
25.884,-1.65,0.39,0.46,1.76
25.894,-1.58,0.45,0.68,1.77
25.904,-1.58,0.43,0.87,1.85
25.914,-1.59,0.36,1.08,1.95
25.924,-1.66,0.22,1.29,2.11
25.934,-1.74,0.05,1.41,2.24
25.944,-1.84,-0.02,1.39,2.31
25.954,-1.98,-0.08,1.24,2.34
25.964,-1.99,-0.06,0.99,2.23
25.974,-1.93,0.15,0.68,2.05
25.984,-1.91,0.34,0.32,1.96
25.995,-1.83,0.42,0.01,1.88
26.005,-1.76,0.56,-0.16,1.85
26.015,-1.68,0.75,-0.07,1.84
26.025,-1.46,0.83,0.02,1.68
26.035,-1.21,1.03,0.15,1.60
26.045,-1.03,1.15,0.29,1.57
26.055,-0.75,1.22,0.45,1.50
26.065,-0.63,1.34,0.65,1.62
26.075,-0.53,1.36,0.84,1.69
26.085,-0.42,1.21,0.87,1.55
26.096,-0.36,1.24,0.95,1.60
26.105,-0.32,1.32,0.94,1.65
26.116,-0.38,1.34,0.69,1.55
26.126,-0.55,1.30,0.39,1.47
26.136,-0.77,1.39,0.24,1.61
26.146,-0.90,1.36,0.09,1.64
26.156,-0.98,1.34,0.02,1.66
26.166,-1.06,1.31,0.11,1.69
26.176,-1.12,1.15,0.30,1.63
26.186,-1.12,0.95,0.54,1.57
26.196,-1.02,0.72,0.90,1.54
26.206,-0.81,0.49,1.23,1.55
26.216,-0.54,0.26,1.51,1.62
26.226,-0.29,0.10,1.66,1.69
26.236,-0.08,0.09,1.66,1.66
26.247,0.06,0.10,1.50,1.50
26.257,0.08,0.01,1.21,1.21
26.267,0.09,-0.09,0.95,0.95
26.277,0.11,-0.21,0.70,0.74
26.287,-0.00,-0.27,0.55,0.61
26.297,-0.22,-0.35,0.39,0.57
26.307,-0.41,-0.46,0.39,0.73
26.317,-0.49,-0.56,0.55,0.93
26.327,-0.53,-0.61,0.69,1.06
26.337,-0.56,-0.59,0.72,1.09
26.347,-0.54,-0.51,0.65,0.99
26.357,-0.52,-0.43,0.46,0.82
26.367,-0.43,-0.39,0.29,0.65
26.378,-0.36,-0.39,0.17,0.56
26.388,-0.27,-0.38,0.06,0.47
26.398,-0.30,-0.33,-0.01,0.45
26.408,-0.32,-0.40,-0.00,0.51
26.418,-0.32,-0.46,0.05,0.57
26.428,-0.45,-0.53,0.10,0.71
26.438,-0.66,-0.59,0.14,0.90
26.448,-0.81,-0.58,0.20,1.01
26.458,-0.83,-0.53,0.30,1.03
26.468,-0.82,-0.49,0.43,1.04
26.478,-0.89,-0.46,0.47,1.11
26.488,-0.92,-0.31,0.47,1.07
26.499,-0.81,-0.28,0.43,0.96
26.508,-0.67,-0.19,0.50,0.85
26.519,-0.60,0.04,0.64,0.88
26.529,-0.57,0.12,0.65,0.87
26.539,-0.58,0.30,0.55,0.85
26.549,-0.64,0.31,0.45,0.84
26.559,-0.66,0.28,0.46,0.85
26.569,-0.51,0.27,0.68,0.89
26.579,-0.06,0.29,0.99,1.03
26.589,0.50,0.38,1.27,1.41
26.599,0.90,0.45,1.33,1.67
26.609,1.02,0.38,1.04,1.51
26.619,0.97,0.31,0.59,1.18
26.630,0.86,0.25,0.14,0.90
26.640,0.73,0.14,-0.10,0.75
26.650,0.65,0.04,-0.16,0.67
26.660,0.62,-0.10,0.04,0.63
26.670,0.64,-0.33,0.27,0.77
26.680,0.66,-0.56,0.37,0.94
26.690,0.70,-0.70,0.39,1.07
26.700,0.80,-0.81,0.28,1.17
26.710,0.88,-0.81,0.07,1.20
26.720,0.99,-0.76,-0.25,1.27
26.730,1.03,-0.70,-0.58,1.38
26.740,0.99,-0.64,-0.90,1.48
26.750,0.99,-0.57,-1.17,1.64
26.761,1.07,-0.43,-1.36,1.78
26.771,1.21,-0.25,-1.40,1.87
26.781,1.34,-0.12,-1.39,1.94
26.791,1.48,-0.10,-1.37,2.02
26.801,1.57,-0.09,-1.31,2.05
26.811,1.73,-0.05,-1.21,2.11
26.821,1.86,-0.00,-1.17,2.20
26.831,1.95,0.05,-1.07,2.23
26.841,1.84,-0.01,-0.99,2.08
26.851,1.61,-0.19,-0.80,1.81
26.861,1.43,-0.34,-0.50,1.56
26.871,1.29,-0.42,-0.21,1.37
26.882,1.17,-0.47,-0.03,1.27
26.891,1.16,-0.47,0.08,1.25
26.902,1.19,-0.38,0.11,1.25
26.912,1.27,-0.27,-0.00,1.29
26.922,1.41,-0.17,-0.13,1.42
26.932,1.71,-0.03,-0.21,1.72
26.942,2.09,0.15,-0.29,2.12
26.952,2.38,0.37,-0.51,2.47
26.962,2.61,0.57,-0.77,2.78
26.972,2.71,0.68,-1.00,2.97
26.982,2.54,0.64,-1.18,2.87
26.992,2.32,0.48,-1.48,2.79
27.003,2.01,0.42,-1.62,2.62
27.012,1.82,0.44,-1.56,2.43
27.023,1.74,0.48,-1.32,2.24
27.033,1.63,0.50,-0.93,1.95
27.043,1.56,0.54,-0.55,1.74
27.053,1.52,0.55,-0.15,1.62
27.063,1.58,0.51,0.24,1.68
27.073,1.67,0.44,0.55,1.82
27.083,1.76,0.42,0.77,1.96
27.093,1.87,0.42,0.88,2.11
27.103,1.94,0.42,0.94,2.20
27.113,1.93,0.27,0.97,2.18
27.123,1.86,0.05,0.92,2.08
27.133,1.77,-0.14,0.86,1.98
27.144,1.61,-0.32,0.72,1.79
27.154,1.42,-0.57,0.59,1.64
27.164,1.25,-0.76,0.44,1.53
27.174,1.04,-0.95,0.27,1.43
27.184,0.86,-1.15,0.18,1.44
27.194,0.73,-1.26,0.03,1.46
27.204,0.64,-1.29,-0.16,1.45
27.214,0.65,-1.25,-0.34,1.45
27.224,0.77,-1.21,-0.49,1.52
27.234,0.82,-1.17,-0.61,1.55
27.244,0.81,-1.12,-0.73,1.56
27.254,0.79,-1.08,-0.82,1.57
27.265,0.79,-0.99,-0.85,1.53
27.274,0.86,-0.91,-0.77,1.47
27.285,0.91,-0.85,-0.66,1.41
27.295,0.94,-0.81,-0.54,1.36
27.305,0.94,-0.81,-0.48,1.33
27.315,0.90,-0.81,-0.39,1.27
27.325,0.87,-0.81,-0.35,1.24
27.335,0.87,-0.83,-0.28,1.24
27.345,0.90,-0.80,-0.18,1.22
27.355,0.86,-0.80,-0.14,1.19
27.365,0.82,-0.83,-0.21,1.19
27.375,0.77,-0.79,-0.27,1.14
27.385,0.68,-0.76,-0.33,1.07
27.396,0.62,-0.73,-0.39,1.03
27.406,0.54,-0.58,-0.44,0.91
27.416,0.53,-0.48,-0.43,0.83
27.426,0.57,-0.36,-0.39,0.78
27.436,0.54,-0.27,-0.34,0.69
27.446,0.54,-0.20,-0.30,0.65
27.456,0.51,-0.09,-0.28,0.59
27.466,0.48,-0.02,-0.30,0.56
27.476,0.41,0.09,-0.40,0.58
27.486,0.33,0.28,-0.47,0.64
27.496,0.30,0.32,-0.57,0.72
27.507,0.24,0.27,-0.59,0.69
27.516,0.17,0.20,-0.50,0.57
27.527,0.02,0.04,-0.38,0.38
27.537,-0.25,-0.20,-0.27,0.41
27.547,-0.53,-0.38,-0.16,0.67
27.557,-0.87,-0.54,-0.06,1.02
27.567,-1.22,-0.65,-0.01,1.38
27.577,-1.46,-0.68,0.07,1.62
27.587,-1.59,-0.69,0.15,1.74
27.597,-1.61,-0.65,0.32,1.76
27.607,-1.50,-0.61,0.49,1.70
27.617,-1.27,-0.50,0.63,1.50
27.627,-1.15,-0.37,0.68,1.39
27.637,-1.13,-0.35,0.53,1.29
27.648,-1.14,-0.25,0.30,1.21
27.657,-1.19,-0.10,0.11,1.20
27.668,-1.22,-0.06,-0.01,1.22
27.678,-1.15,-0.04,0.02,1.15
27.688,-1.09,0.07,0.16,1.10
27.698,-0.97,0.09,0.37,1.04
27.708,-0.99,0.04,0.54,1.13
27.718,-1.15,-0.09,0.63,1.31
27.728,-1.40,-0.19,0.73,1.59
27.738,-1.72,-0.27,0.94,1.97
27.748,-2.04,-0.27,1.08,2.32
27.758,-2.31,-0.11,1.18,2.60
27.769,-2.53,0.14,1.26,2.83
27.778,-2.60,0.35,1.34,2.95
27.789,-2.51,0.51,1.47,2.95
27.799,-2.27,0.73,1.64,2.89
27.809,-2.08,0.90,1.76,2.87
27.819,-2.05,0.92,1.71,2.82
27.829,-1.96,0.96,1.47,2.63
27.839,-1.86,1.09,1.17,2.45
27.849,-1.74,1.24,0.81,2.29
27.859,-1.67,1.48,0.31,2.25
27.869,-1.66,1.71,-0.29,2.40
27.879,-1.76,1.87,-0.76,2.68
27.889,-1.80,1.94,-0.96,2.82
27.900,-1.66,1.95,-0.77,2.67
27.910,-1.53,1.81,-0.39,2.40
27.920,-1.36,1.62,0.05,2.12
27.930,-1.18,1.43,0.37,1.89
27.940,-1.10,1.18,0.59,1.72
27.950,-1.05,0.98,0.72,1.61
27.960,-0.97,0.82,0.75,1.48
27.970,-1.02,0.70,0.65,1.40
27.980,-1.06,0.63,0.46,1.32
27.990,-1.13,0.59,0.24,1.30
28.000,-1.16,0.57,0.13,1.30
28.010,-1.25,0.56,0.13,1.38
28.020,-1.19,0.57,0.21,1.33
28.031,-1.17,0.41,0.29,1.27
28.041,-1.13,0.29,0.53,1.28
28.051,-1.15,0.13,0.89,1.46
28.061,-1.11,-0.05,1.18,1.62
28.071,-1.07,-0.18,1.38,1.75
28.081,-1.07,-0.28,1.49,1.86
28.091,-1.04,-0.34,1.41,1.79
28.101,-0.88,-0.30,1.21,1.53
28.111,-0.66,-0.14,1.01,1.21
28.121,-0.47,0.07,0.85,0.98
28.131,-0.26,0.17,0.59,0.67
28.141,0.00,0.20,0.37,0.42
28.152,-0.01,0.32,0.25,0.40
28.161,-0.14,0.15,0.12,0.23
28.172,-0.39,-0.12,0.13,0.43
28.182,-0.71,-0.48,0.37,0.94
28.192,-0.81,-0.80,0.66,1.31
28.202,-0.94,-0.90,0.94,1.60
28.212,-1.01,-0.91,1.02,1.70
28.222,-1.08,-1.02,0.94,1.76
28.232,-0.99,-0.73,0.70,1.41
28.242,-1.03,-0.54,0.43,1.24
28.252,-0.91,-0.38,0.12,0.99
28.262,-0.81,-0.20,-0.09,0.84
28.273,-0.73,-0.08,-0.18,0.75
28.283,-0.65,-0.12,-0.17,0.68
28.293,-0.56,-0.10,-0.06,0.57
28.303,-0.56,-0.03,0.04,0.56
28.313,-0.56,0.03,0.09,0.57
28.323,-0.54,0.09,0.18,0.58
28.333,-0.49,0.22,0.38,0.66
28.343,-0.38,0.31,0.57,0.75
28.353,-0.18,0.31,0.71,0.80
28.363,0.04,0.33,0.73,0.80
28.373,0.24,0.32,0.75,0.85
28.383,0.39,0.21,0.73,0.85
28.393,0.53,0.07,0.61,0.81
28.403,0.66,-0.03,0.49,0.82
28.414,0.77,-0.17,0.34,0.85
28.424,0.76,-0.31,0.25,0.86
28.434,0.71,-0.45,0.17,0.86
28.444,0.69,-0.52,0.14,0.87
28.454,0.63,-0.59,0.14,0.88
28.464,0.64,-0.73,0.12,0.98
28.474,0.64,-0.79,0.11,1.02
28.484,0.73,-0.90,0.10,1.16
28.494,0.93,-0.97,0.14,1.35
28.504,0.99,-0.85,0.20,1.32
28.514,0.99,-0.89,0.07,1.33
28.524,1.09,-1.02,-0.18,1.51
28.535,1.09,-0.97,-0.37,1.51
28.545,1.01,-0.79,-0.54,1.39
28.555,1.14,-0.73,-0.71,1.53
28.565,1.11,-0.64,-0.76,1.49
28.575,1.07,-0.58,-0.70,1.41
28.585,1.14,-0.63,-0.60,1.43
28.595,1.17,-0.67,-0.59,1.47
28.605,1.32,-0.55,-0.50,1.52
28.615,1.44,-0.36,-0.45,1.55
28.625,1.52,-0.17,-0.62,1.65
28.635,1.43,0.02,-0.79,1.63
28.645,1.43,0.18,-0.94,1.72
28.656,1.46,0.32,-1.01,1.80
28.666,1.39,0.48,-1.03,1.80
28.676,1.41,0.41,-1.04,1.80
28.686,1.42,0.37,-0.83,1.69
28.696,1.64,0.38,-0.63,1.80
28.706,1.96,0.41,-0.45,2.06
28.716,2.34,0.54,-0.38,2.43
28.726,2.76,0.74,-0.51,2.90
28.736,3.11,0.92,-0.79,3.34
28.746,3.37,1.04,-1.08,3.69
28.756,3.39,0.89,-1.16,3.70
28.766,3.18,0.64,-1.16,3.45
28.776,2.72,0.44,-1.09,2.97
28.786,2.31,0.28,-1.07,2.56
28.797,1.97,0.18,-1.11,2.27
28.807,1.66,0.37,-1.07,2.01
28.817,1.69,0.76,-0.94,2.08
28.827,1.84,1.19,-0.79,2.33
28.837,2.03,1.56,-0.59,2.62
28.847,2.31,1.97,-0.27,3.05
28.857,2.67,2.09,-0.10,3.39
28.867,2.99,2.14,0.03,3.68
28.877,3.07,2.03,0.15,3.69
28.887,2.93,1.80,0.17,3.45
28.898,2.66,1.43,0.16,3.02
28.907,2.30,1.14,0.18,2.57
28.918,2.11,0.95,0.25,2.33
28.927,1.95,0.75,0.24,2.10
28.938,1.80,0.65,0.29,1.94
28.948,1.69,0.53,0.38,1.81
28.958,1.57,0.28,0.35,1.64
28.968,1.41,0.08,0.19,1.42
28.978,1.22,-0.12,0.01,1.23
28.988,1.15,-0.32,-0.03,1.20
28.998,0.98,-0.52,-0.04,1.11
29.008,0.78,-0.75,-0.04,1.08
29.018,0.56,-0.90,-0.11,1.07
29.028,0.38,-1.04,-0.22,1.13
29.039,0.18,-1.20,-0.41,1.28
29.049,0.02,-1.28,-0.56,1.39
29.059,-0.00,-1.29,-0.68,1.46
29.069,0.03,-1.25,-0.72,1.45
29.079,0.13,-1.25,-0.64,1.41
29.089,0.26,-1.11,-0.47,1.23
29.099,0.41,-0.97,-0.26,1.09
29.109,0.60,-0.88,-0.12,1.07
29.119,0.70,-0.83,-0.03,1.09
29.129,0.66,-0.85,0.12,1.08
29.139,0.55,-0.95,0.42,1.17
29.149,0.60,-1.09,0.89,1.53
29.159,0.57,-1.27,1.46,2.02
29.169,0.42,-1.42,1.96,2.45
29.180,0.25,-1.40,2.28,2.69
29.190,0.15,-1.28,2.21,2.56
29.200,0.04,-1.07,1.84,2.13
29.210,0.08,-0.74,1.19,1.40
29.220,0.14,-0.25,0.28,0.40
29.230,0.21,0.11,-0.54,0.59
29.240,0.33,0.29,-1.03,1.12
29.250,0.42,0.57,-1.22,1.41
29.260,0.53,0.70,-1.33,1.59
29.270,0.43,0.65,-1.16,1.39
29.281,0.27,0.62,-0.93,1.15
29.290,0.00,0.54,-0.68,0.86
29.301,-0.23,0.34,-0.33,0.53
29.310,-0.36,0.18,-0.00,0.40
29.321,-0.47,0.14,0.26,0.55
29.331,-0.71,-0.01,0.28,0.76
29.341,-0.78,-0.26,0.21,0.85
29.351,-0.84,-0.37,0.15,0.93
29.361,-0.91,-0.44,0.05,1.01
29.371,-0.89,-0.52,-0.02,1.03
29.381,-0.87,-0.50,0.06,1.01
29.391,-0.90,-0.46,0.13,1.02
29.401,-0.87,-0.44,0.12,0.98
29.411,-0.89,-0.36,0.10,0.96
29.422,-0.91,-0.28,0.15,0.96
29.432,-0.79,-0.20,0.23,0.85
29.442,-0.58,-0.03,0.36,0.69
29.452,-0.41,0.08,0.35,0.55
29.462,-0.40,0.16,0.18,0.47
29.472,-0.35,0.24,0.03,0.43
29.482,-0.31,0.32,-0.01,0.44
29.492,-0.23,0.42,0.05,0.48
29.502,-0.11,0.50,0.17,0.54
29.512,-0.08,0.51,0.28,0.58
29.522,-0.23,0.45,0.32,0.60
29.532,-0.37,0.39,0.38,0.66
29.542,-0.50,0.32,0.50,0.78
29.553,-0.69,0.22,0.64,0.97
29.563,-0.88,0.13,0.70,1.13
29.573,-1.09,0.13,0.72,1.31
29.583,-1.41,0.09,0.70,1.58
29.593,-1.67,-0.01,0.55,1.76
29.603,-1.92,-0.02,0.37,1.95
29.613,-2.07,0.07,0.26,2.09
29.623,-2.21,0.28,0.30,2.25
29.633,-2.23,0.51,0.44,2.33
29.643,-2.13,0.77,0.65,2.36
29.653,-2.00,1.06,0.91,2.44
29.663,-1.77,1.37,1.13,2.51
29.673,-1.60,1.65,1.18,2.59
29.684,-1.48,1.76,0.98,2.49
29.694,-1.46,1.81,0.58,2.40
29.704,-1.43,1.91,0.14,2.39
29.714,-1.35,1.93,-0.35,2.38
29.724,-1.34,1.83,-0.73,2.38
29.734,-1.39,1.74,-0.93,2.41
29.744,-1.47,1.55,-0.88,2.31
29.754,-1.50,1.22,-0.55,2.01
29.764,-1.47,0.88,-0.09,1.72
29.774,-1.55,0.58,0.28,1.68
29.784,-1.62,0.31,0.44,1.71
29.794,-1.64,0.10,0.39,1.69
29.805,-1.59,0.00,0.25,1.61
29.815,-1.53,-0.08,0.11,1.54
29.825,-1.45,-0.17,0.05,1.46
29.835,-1.29,-0.26,0.04,1.31
29.845,-1.18,-0.25,0.07,1.21
29.855,-1.18,-0.26,0.09,1.21
29.865,-1.17,-0.30,0.04,1.21
29.875,-1.23,-0.35,0.10,1.28
29.885,-1.25,-0.38,0.23,1.33
29.895,-1.21,-0.48,0.36,1.36
29.905,-1.15,-0.58,0.58,1.42
29.915,-1.04,-0.65,0.74,1.43
29.926,-0.98,-0.67,0.80,1.43
29.936,-0.99,-0.75,0.73,1.44
29.946,-0.95,-0.82,0.55,1.37
29.956,-1.00,-0.85,0.32,1.35
29.966,-0.97,-0.83,0.06,1.28
29.976,-1.05,-0.82,-0.20,1.35
29.986,-1.19,-0.91,-0.43,1.56
29.996,-1.34,-0.98,-0.57,1.76
30.006,-1.45,-1.04,-0.57,1.87
30.016,-1.48,-1.06,-0.40,1.87
30.026,-1.48,-1.02,-0.19,1.81
30.036,-1.46,-0.96,0.02,1.75
30.046,-1.50,-0.89,0.13,1.75
30.056,-1.61,-0.79,0.16,1.80
30.067,-1.67,-0.67,0.18,1.81
30.077,-1.66,-0.55,0.20,1.76
30.087,-1.67,-0.38,0.23,1.73
30.097,-1.58,-0.21,0.33,1.63
30.107,-1.43,-0.06,0.45,1.50
30.117,-1.30,0.07,0.56,1.42
30.127,-1.14,0.16,0.57,1.28
30.137,-1.04,0.16,0.50,1.17
30.147,-1.01,0.17,0.38,1.09
30.157,-1.00,0.20,0.27,1.06
30.167,-0.91,0.26,0.21,0.97
30.177,-0.76,0.36,0.19,0.86
30.188,-0.53,0.51,0.17,0.75
30.198,-0.19,0.67,0.08,0.70
30.208,0.25,0.82,-0.06,0.86
30.218,0.67,0.97,-0.25,1.21
30.228,0.93,1.08,-0.52,1.51
30.238,1.10,0.98,-0.63,1.60
30.248,1.17,0.74,-0.67,1.54
30.258,1.12,0.48,-0.52,1.33
30.268,1.01,0.18,-0.35,1.09
30.278,0.83,-0.04,-0.22,0.86
30.288,0.56,-0.26,-0.11,0.63
30.298,0.42,-0.49,0.05,0.65
30.309,0.40,-0.54,0.16,0.69
30.318,0.41,-0.55,0.16,0.71
30.329,0.53,-0.51,0.02,0.74
30.339,0.62,-0.42,-0.17,0.77
30.349,0.81,-0.36,-0.37,0.96
30.359,0.96,-0.32,-0.60,1.18
30.369,1.00,-0.33,-0.71,1.27
30.379,1.00,-0.39,-0.78,1.33
30.389,0.94,-0.52,-0.79,1.34
30.399,0.88,-0.72,-0.77,1.37
30.409,0.85,-0.84,-0.61,1.34
30.419,0.88,-0.86,-0.53,1.34
30.430,1.01,-0.78,-0.54,1.39
30.439,1.18,-0.63,-0.64,1.49
30.450,1.41,-0.46,-0.74,1.66
30.460,1.68,-0.25,-0.81,1.88
30.470,1.76,-0.05,-0.81,1.93
30.480,1.81,-0.00,-0.77,1.97
30.490,1.82,0.03,-0.61,1.92
30.500,1.88,-0.02,-0.38,1.92
30.510,1.99,-0.06,-0.08,1.99
30.520,2.09,-0.14,0.24,2.11
30.530,2.29,-0.17,0.36,2.33
30.540,2.58,-0.06,0.43,2.62
30.550,2.76,0.12,0.33,2.79
30.560,2.95,0.36,0.03,2.97
30.571,2.90,0.61,-0.31,2.98
30.581,2.84,0.80,-0.44,2.98
30.591,2.78,0.94,-0.29,2.95
30.601,2.75,0.92,0.15,2.90
30.611,2.73,0.80,0.76,2.94
30.621,2.67,0.71,1.24,3.03
30.631,2.55,0.63,1.53,3.04
30.641,2.48,0.54,1.65,3.03
30.651,2.33,0.51,1.43,2.78
30.661,2.22,0.65,1.12,2.57
30.671,2.23,0.77,0.79,2.49
30.681,2.24,0.79,0.62,2.45
30.691,2.37,0.80,0.60,2.57
30.701,2.49,0.81,0.56,2.68
30.712,2.61,0.77,0.61,2.79
30.722,2.63,0.65,0.70,2.80
30.732,2.46,0.47,0.71,2.60
30.742,2.26,0.28,0.62,2.36
30.752,2.06,0.13,0.56,2.14
30.762,1.95,-0.01,0.43,2.00
30.772,1.85,-0.13,0.27,1.87
30.782,1.75,-0.25,0.06,1.77
30.792,1.68,-0.28,-0.21,1.72
30.802,1.61,-0.26,-0.37,1.67
30.813,1.48,-0.33,-0.45,1.58
30.822,1.28,-0.46,-0.44,1.43
30.833,1.14,-0.56,-0.36,1.32
30.842,0.96,-0.64,-0.26,1.18
30.853,0.79,-0.76,-0.18,1.12
30.863,0.68,-0.83,-0.10,1.07
30.873,0.57,-0.88,-0.05,1.05
30.883,0.40,-0.98,-0.12,1.06
30.893,0.36,-0.96,-0.12,1.04
30.903,0.41,-0.81,-0.20,0.93
30.913,0.37,-0.72,-0.38,0.89
30.923,0.29,-0.70,-0.52,0.92
30.933,0.34,-0.71,-0.51,0.93
30.943,0.45,-0.69,-0.38,0.91
30.954,0.53,-0.68,-0.29,0.91
30.964,0.50,-0.62,-0.30,0.85
30.974,0.44,-0.56,-0.37,0.81
30.984,0.35,-0.54,-0.39,0.75
30.994,0.25,-0.57,-0.35,0.71
31.004,0.16,-0.58,-0.29,0.67
31.014,0.11,-0.51,-0.26,0.58
31.024,0.02,-0.45,-0.33,0.55
31.034,-0.20,-0.41,-0.49,0.67
31.044,-0.44,-0.36,-0.69,0.89
31.054,-0.56,-0.26,-0.81,1.02
31.064,-0.55,-0.10,-0.74,0.93
31.075,-0.55,0.11,-0.63,0.84
31.084,-0.48,0.26,-0.51,0.75
31.095,-0.38,0.44,-0.42,0.72
31.105,-0.27,0.68,-0.50,0.89
31.115,-0.34,0.82,-0.73,1.15
31.125,-0.51,0.90,-0.96,1.41
31.135,-0.60,0.98,-0.90,1.46
31.145,-0.58,1.00,-0.50,1.26
31.155,-0.52,0.95,0.10,1.09
31.165,-0.51,0.80,0.78,1.23
31.175,-0.58,0.53,1.44,1.64
31.185,-0.69,0.26,1.94,2.08
31.196,-0.84,-0.00,2.18,2.34
31.205,-0.95,-0.23,2.21,2.41
31.216,-1.02,-0.36,2.04,2.31
31.226,-1.23,-0.43,1.59,2.06
31.236,-1.50,-0.63,1.09,1.96
31.246,-1.67,-0.70,0.71,1.94
31.256,-1.68,-0.75,0.38,1.88
31.266,-1.57,-0.67,0.07,1.71
31.276,-1.51,-0.51,-0.26,1.62
31.286,-1.53,-0.45,-0.69,1.74
31.296,-1.52,-0.36,-1.08,1.90
31.306,-1.50,-0.23,-1.24,1.96
31.316,-1.46,-0.15,-1.18,1.88
31.326,-1.39,-0.08,-0.92,1.67
31.337,-1.27,-0.07,-0.42,1.34
31.347,-1.19,-0.13,0.10,1.20
31.357,-1.25,-0.21,0.48,1.35
31.367,-1.33,-0.19,0.76,1.54
31.377,-1.38,-0.15,1.06,1.75
31.387,-1.32,-0.10,1.37,1.90
31.397,-1.31,-0.01,1.58,2.05
31.407,-1.27,0.18,1.68,2.11
31.417,-1.26,0.46,1.55,2.05
31.427,-1.31,0.73,1.29,1.98
31.437,-1.33,0.97,1.05,1.95
31.447,-1.30,1.18,0.81,1.94
31.458,-1.20,1.36,0.61,1.92
31.468,-1.13,1.40,0.46,1.85
31.478,-1.04,1.37,0.34,1.75
31.488,-0.99,1.34,0.22,1.68
31.498,-1.01,1.30,0.15,1.66
31.508,-1.02,1.21,0.09,1.58
31.518,-1.02,1.13,-0.04,1.52
31.528,-1.11,1.14,-0.24,1.61
31.538,-1.21,1.12,-0.38,1.69
31.548,-1.26,1.03,-0.46,1.69
31.558,-1.26,0.98,-0.43,1.65
31.568,-1.33,0.86,-0.37,1.62
31.579,-1.45,0.65,-0.33,1.62
31.588,-1.58,0.50,-0.31,1.69
31.599,-1.71,0.31,-0.20,1.75
31.609,-1.87,0.18,-0.15,1.88
31.619,-1.98,0.09,-0.14,1.98
31.629,-1.92,0.17,-0.03,1.93
31.639,-1.78,0.22,0.00,1.79
31.649,-1.63,0.36,0.13,1.68
31.659,-1.42,0.37,0.25,1.49
31.669,-1.20,0.37,0.39,1.31
31.679,-0.89,0.40,0.58,1.13
31.689,-0.56,0.41,0.71,0.99
31.699,-0.33,0.35,0.81,0.94
31.709,-0.21,0.28,0.83,0.90
31.720,-0.27,0.27,0.65,0.75
31.730,-0.29,0.20,0.24,0.42
31.740,-0.40,0.24,-0.11,0.48
31.750,-0.52,0.16,-0.33,0.63
31.760,-0.56,0.09,-0.51,0.76
31.770,-0.63,-0.01,-0.47,0.78
31.780,-0.58,-0.18,-0.36,0.70
31.790,-0.58,-0.36,-0.16,0.70
31.800,-0.58,-0.50,0.02,0.77
31.810,-0.56,-0.64,0.18,0.87
31.820,-0.59,-0.74,0.35,1.02
31.830,-0.60,-0.78,0.48,1.10
31.840,-0.56,-0.75,0.57,1.09
31.850,-0.45,-0.66,0.56,0.98
31.861,-0.36,-0.61,0.57,0.91
31.871,-0.32,-0.67,0.57,0.94
31.881,-0.33,-0.78,0.53,1.00
31.891,-0.40,-0.79,0.40,0.97
31.901,-0.51,-0.75,0.28,0.95
31.911,-0.67,-0.72,0.21,1.01
31.921,-0.80,-0.66,0.22,1.07
31.931,-0.83,-0.55,0.26,1.03
31.941,-0.81,-0.46,0.41,1.01
31.951,-0.73,-0.31,0.50,0.94
31.962,-0.69,-0.23,0.52,0.89
31.972,-0.64,-0.13,0.44,0.78
31.983,-0.53,0.01,0.43,0.68
31.992,-0.42,0.07,0.44,0.61
32.002,-0.30,0.16,0.45,0.56
32.012,-0.19,0.24,0.49,0.58
32.022,-0.18,0.25,0.48,0.57
32.032,-0.16,0.20,0.48,0.54
32.042,-0.10,0.14,0.47,0.50
32.052,-0.04,0.05,0.33,0.34
32.062,0.10,0.07,0.14,0.18
32.072,0.28,0.13,-0.01,0.31
32.083,0.39,0.14,-0.19,0.46
32.092,0.48,0.12,-0.33,0.59
32.103,0.58,0.13,-0.36,0.70
32.113,0.69,0.13,-0.31,0.77
32.123,0.82,-0.02,-0.11,0.83
32.133,0.91,-0.20,0.20,0.96
32.143,0.93,-0.39,0.51,1.13
32.153,0.98,-0.55,0.74,1.34
32.163,0.98,-0.64,0.83,1.44
32.173,0.91,-0.70,0.70,1.35
32.183,0.82,-0.67,0.49,1.17
32.193,0.86,-0.60,0.20,1.06
32.204,0.87,-0.48,-0.05,0.99
32.213,0.87,-0.43,-0.28,1.01
32.224,0.95,-0.45,-0.49,1.16
32.234,1.04,-0.44,-0.57,1.27
32.244,1.22,-0.42,-0.60,1.42
32.254,1.36,-0.39,-0.59,1.53
32.264,1.38,-0.35,-0.59,1.54
32.274,1.34,-0.34,-0.65,1.53
32.284,1.30,-0.26,-0.72,1.51
32.294,1.34,-0.15,-0.71,1.53
32.304,1.37,-0.09,-0.66,1.52
32.314,1.40,-0.11,-0.56,1.52
32.324,1.38,-0.10,-0.49,1.47
32.334,1.41,-0.11,-0.45,1.48
32.345,1.38,-0.14,-0.51,1.48
32.354,1.22,-0.14,-0.59,1.36
32.365,1.16,-0.09,-0.71,1.37
32.375,1.05,-0.02,-0.78,1.31
32.385,1.08,0.11,-0.69,1.28
32.395,1.21,0.20,-0.61,1.37
32.405,1.34,0.29,-0.46,1.44
32.415,1.46,0.36,-0.28,1.53
32.425,1.62,0.36,-0.20,1.68
32.435,1.79,0.40,-0.14,1.84
32.445,1.93,0.51,-0.21,2.00
32.455,1.97,0.56,-0.36,2.08
32.466,1.95,0.60,-0.48,2.10
32.476,1.92,0.66,-0.46,2.08
32.486,1.89,0.69,-0.36,2.05
32.496,1.87,0.63,-0.28,1.99
32.506,1.91,0.60,-0.11,2.00
32.516,1.92,0.53,0.03,1.99
32.526,1.93,0.41,0.07,1.97
32.536,1.93,0.35,0.11,1.96
32.546,1.86,0.36,0.07,1.90
32.556,1.77,0.25,0.01,1.79
32.566,1.64,0.19,-0.07,1.65
32.576,1.56,0.21,0.00,1.57
32.587,1.53,0.15,0.09,1.54
32.596,1.52,0.08,0.16,1.53
32.607,1.65,0.02,0.24,1.67
32.617,1.85,0.02,0.38,1.89
32.627,1.96,-0.05,0.45,2.01
32.637,1.93,-0.19,0.38,1.98
32.647,1.86,-0.32,0.29,1.91
32.657,1.78,-0.45,0.12,1.84
32.667,1.65,-0.52,-0.06,1.73
32.677,1.39,-0.63,-0.28,1.56
32.687,1.24,-0.72,-0.42,1.49
32.697,1.03,-0.76,-0.51,1.38
32.707,0.85,-0.77,-0.69,1.34
32.717,0.67,-0.76,-0.86,1.32
32.728,0.56,-0.66,-0.93,1.27
32.737,0.51,-0.63,-0.93,1.23
32.748,0.51,-0.63,-0.82,1.15
32.758,0.57,-0.67,-0.59,1.06
32.768,0.67,-0.73,-0.40,1.07
32.778,0.77,-0.76,-0.21,1.10
32.788,0.76,-0.81,-0.07,1.11
32.798,0.65,-0.84,0.02,1.06
32.808,0.65,-0.80,0.04,1.04
32.818,0.62,-0.55,0.07,0.84
32.828,0.50,-0.32,0.01,0.59
32.838,0.42,-0.16,-0.05,0.46
32.849,0.31,-0.01,-0.07,0.32
32.858,0.19,0.09,-0.04,0.21
32.869,0.06,0.18,0.02,0.19
32.879,-0.18,0.22,0.10,0.30
32.889,-0.41,0.21,0.19,0.50
32.899,-0.46,0.27,0.23,0.58
32.909,-0.47,0.41,0.29,0.68
32.919,-0.33,0.60,0.47,0.83
32.929,-0.35,0.59,0.51,0.86
32.939,-0.34,0.58,0.44,0.80
32.949,-0.38,0.68,0.37,0.86
32.959,-0.38,0.64,0.16,0.76
32.969,-0.58,0.56,0.05,0.81
32.979,-0.87,0.44,0.08,0.98
32.990,-1.12,0.27,0.22,1.17
33.000,-1.33,0.10,0.49,1.42
33.010,-1.42,-0.03,0.70,1.59
33.020,-1.45,-0.12,0.76,1.64
33.030,-1.35,-0.16,0.76,1.56
33.040,-1.21,-0.17,0.68,1.40
33.050,-1.12,-0.21,0.58,1.27
33.060,-1.07,-0.24,0.35,1.15
33.070,-1.12,-0.28,0.11,1.16
33.080,-1.02,-0.11,-0.10,1.03
33.090,-0.97,-0.15,-0.27,1.02
33.100,-1.05,-0.16,-0.39,1.13
33.111,-1.11,-0.07,-0.53,1.23
33.121,-1.28,-0.01,-0.69,1.45
33.131,-1.43,-0.04,-0.80,1.64
33.141,-1.54,-0.08,-0.79,1.73
33.151,-1.54,-0.07,-0.59,1.65
33.161,-1.40,-0.02,-0.26,1.42
33.171,-1.24,0.05,0.12,1.25
33.181,-1.14,0.10,0.43,1.23
33.191,-1.10,0.13,0.65,1.29
33.201,-1.13,0.11,0.85,1.42
33.211,-1.25,0.08,0.99,1.60
33.221,-1.31,0.05,1.24,1.80
33.232,-1.39,0.04,1.45,2.01
33.241,-1.50,0.06,1.55,2.16
33.252,-1.58,0.14,1.56,2.23
33.262,-1.62,0.25,1.42,2.17
33.272,-1.67,0.35,1.13,2.05
33.282,-1.63,0.45,0.85,1.89
33.292,-1.47,0.56,0.61,1.69
33.302,-1.29,0.68,0.33,1.50
33.312,-1.17,0.75,0.09,1.39
33.322,-1.05,0.76,-0.00,1.29
33.332,-0.91,0.78,-0.13,1.21
33.342,-0.92,0.89,-0.31,1.32
33.353,-0.90,1.05,-0.49,1.47
33.363,-0.90,1.33,-0.73,1.76
33.373,-1.08,1.55,-0.92,2.10
33.383,-1.29,1.69,-0.91,2.31
33.393,-1.35,1.71,-0.69,2.28
33.403,-1.45,1.55,-0.23,2.13
33.413,-1.42,1.21,0.25,1.89
33.423,-1.41,0.79,0.74,1.77
33.433,-1.50,0.42,1.08,1.90
33.443,-1.67,0.12,1.16,2.03
33.453,-1.88,-0.05,0.95,2.11
33.463,-2.03,-0.11,0.45,2.08
33.473,-2.04,0.02,0.01,2.04
33.483,-1.95,0.14,-0.26,1.98
33.493,-1.83,0.12,-0.41,1.88
33.504,-1.62,0.09,-0.39,1.67
33.514,-1.45,-0.01,-0.22,1.46
33.524,-1.16,-0.07,-0.12,1.17
33.534,-0.91,-0.19,-0.01,0.93
33.544,-0.70,-0.29,0.08,0.76
33.554,-0.54,-0.35,0.07,0.65
33.564,-0.46,-0.45,0.04,0.65
33.574,-0.45,-0.52,-0.09,0.69
33.584,-0.50,-0.55,-0.22,0.78
33.594,-0.63,-0.61,-0.34,0.94
33.604,-0.77,-0.73,-0.43,1.15
33.615,-0.83,-0.77,-0.43,1.21
33.624,-0.78,-0.77,-0.39,1.16
33.635,-0.77,-0.78,-0.40,1.17
33.645,-0.70,-0.80,-0.47,1.16
33.655,-0.67,-0.73,-0.57,1.14
33.665,-0.67,-0.65,-0.63,1.12
33.675,-0.69,-0.64,-0.67,1.16
33.685,-0.72,-0.57,-0.68,1.14
33.695,-0.64,-0.39,-0.58,0.94
33.705,-0.61,-0.23,-0.45,0.79
33.715,-0.64,-0.16,-0.37,0.76
33.725,-0.70,-0.06,-0.30,0.77
33.735,-0.74,0.04,-0.18,0.76
33.745,-0.70,0.19,0.01,0.72
33.756,-0.72,0.27,0.22,0.80
33.766,-0.71,0.36,0.32,0.86
33.776,-0.60,0.49,0.42,0.88
33.786,-0.37,0.56,0.68,0.96
33.796,-0.27,0.58,0.90,1.10
33.806,-0.06,0.65,1.06,1.25
33.816,0.01,0.61,1.14,1.29
33.826,0.15,0.56,1.12,1.27
33.836,0.22,0.54,0.87,1.05
33.846,0.16,0.53,0.64,0.85
33.856,0.11,0.50,0.39,0.65
33.866,0.07,0.40,0.13,0.43
33.877,0.05,0.33,0.00,0.33
33.886,0.11,0.24,-0.03,0.26
33.897,0.20,0.14,-0.07,0.25
33.907,0.28,-0.00,-0.10,0.29
33.917,0.38,-0.15,-0.12,0.43
33.927,0.49,-0.30,-0.15,0.59
33.937,0.59,-0.42,-0.22,0.76
33.947,0.64,-0.55,-0.22,0.87
33.957,0.65,-0.69,-0.38,1.02
33.967,0.64,-0.75,-0.44,1.08
33.977,0.66,-0.83,-0.44,1.15
33.987,0.72,-0.87,-0.35,1.18
33.997,0.81,-0.82,-0.23,1.18
34.007,0.88,-0.76,-0.14,1.17
34.018,0.99,-0.73,-0.06,1.23
34.028,1.04,-0.64,0.00,1.22
34.038,1.09,-0.60,0.06,1.25
34.048,1.20,-0.62,0.11,1.36
34.058,1.30,-0.58,0.08,1.42
34.068,1.38,-0.57,0.05,1.50
34.078,1.43,-0.60,-0.03,1.55
34.088,1.40,-0.63,-0.13,1.54
34.098,1.32,-0.72,-0.26,1.53
34.110,1.21,-0.76,-0.52,1.52
34.118,1.11,-0.66,-0.74,1.49
34.128,1.03,-0.55,-0.88,1.46
34.139,0.99,-0.50,-0.98,1.48
34.149,1.04,-0.42,-1.02,1.52
34.159,1.15,-0.24,-1.02,1.55
34.169,1.31,-0.06,-1.00,1.65
34.179,1.61,0.18,-0.91,1.86
34.189,1.83,0.38,-0.71,2.00
34.199,2.03,0.53,-0.59,2.18
34.209,2.15,0.59,-0.52,2.29
34.219,2.24,0.55,-0.54,2.37
34.229,2.18,0.44,-0.56,2.29
34.239,2.07,0.34,-0.61,2.18
34.249,1.87,0.35,-0.64,2.01
34.260,1.68,0.38,-0.50,1.79
34.270,1.48,0.39,-0.19,1.55
34.280,1.44,0.41,0.13,1.50
34.290,1.64,0.50,0.44,1.77
34.300,1.81,0.65,0.81,2.09
34.310,1.93,0.71,0.96,2.28
34.320,2.00,0.68,0.99,2.33
34.330,1.97,0.63,0.99,2.30
34.340,2.01,0.50,1.01,2.30
34.350,2.02,0.38,1.01,2.29
34.360,1.90,0.31,0.86,2.11
34.370,1.74,0.14,0.52,1.82
34.381,1.52,0.01,0.11,1.53
34.391,1.38,-0.14,-0.14,1.40
34.401,1.35,-0.18,-0.23,1.38
34.411,1.37,-0.27,-0.26,1.42
34.421,1.43,-0.37,-0.34,1.51
34.431,1.44,-0.40,-0.46,1.56
34.441,1.35,-0.45,-0.64,1.56
34.451,1.29,-0.56,-0.94,1.69
34.461,1.18,-0.59,-1.15,1.75
34.471,0.98,-0.64,-1.19,1.67
34.481,0.84,-0.77,-1.12,1.60
34.491,0.71,-0.85,-1.00,1.49
34.501,0.54,-0.93,-0.88,1.39
34.511,0.42,-0.94,-0.82,1.31
34.522,0.36,-0.85,-0.68,1.14
34.532,0.34,-0.82,-0.53,1.04
34.542,0.35,-0.82,-0.36,0.96
34.552,0.42,-0.78,-0.06,0.89
34.562,0.65,-0.62,0.16,0.91
34.572,0.78,-0.46,0.32,0.96
34.582,0.86,-0.38,0.39,1.01
34.592,0.86,-0.30,0.40,0.99
34.602,0.84,-0.22,0.41,0.96
34.612,0.84,-0.14,0.38,0.93
34.622,0.79,-0.06,0.36,0.87
34.632,0.63,-0.00,0.31,0.70
34.643,0.44,0.04,0.21,0.48
34.653,0.29,0.05,0.08,0.30
34.663,0.23,0.15,-0.01,0.27
34.673,0.16,0.22,-0.04,0.28
34.683,0.18,0.28,0.01,0.34
34.693,0.16,0.39,0.02,0.42
34.703,0.18,0.47,0.07,0.51
34.713,0.21,0.56,0.17,0.62
34.723,0.18,0.57,0.23,0.64
34.733,0.09,0.49,0.25,0.56
34.743,-0.11,0.34,0.37,0.52
34.753,-0.31,0.11,0.55,0.64
34.764,-0.46,-0.10,0.75,0.89
34.774,-0.61,-0.27,0.88,1.10
34.784,-0.64,-0.37,0.88,1.15
34.794,-0.61,-0.38,0.76,1.04
34.804,-0.67,-0.39,0.46,0.90
34.814,-0.76,-0.41,0.07,0.87
34.824,-0.77,-0.38,-0.18,0.88
34.834,-0.71,-0.33,-0.27,0.82
34.844,-0.57,-0.25,-0.21,0.66
34.854,-0.52,-0.23,-0.11,0.58
34.864,-0.59,-0.31,-0.14,0.68
34.874,-0.85,-0.35,-0.40,1.00
34.884,-1.13,-0.34,-0.62,1.33
34.894,-1.38,-0.34,-0.68,1.58
34.905,-1.50,-0.26,-0.59,1.63
34.915,-1.48,-0.14,-0.38,1.54
34.925,-1.39,0.01,-0.18,1.40
34.935,-1.25,0.15,-0.09,1.26
34.945,-1.10,0.28,-0.10,1.14
34.955,-0.91,0.45,0.07,1.02
34.965,-0.77,0.60,0.15,0.98
34.975,-0.84,0.64,0.46,1.15
34.985,-0.92,0.60,0.62,1.26
34.995,-1.17,0.51,0.78,1.50
35.006,-1.45,0.41,0.89,1.75
35.015,-1.66,0.37,0.96,1.95
35.026,-1.87,0.32,1.01,2.15
35.036,-1.98,0.32,1.05,2.26
35.046,-1.99,0.39,0.92,2.23
35.056,-1.90,0.48,0.66,2.07
35.066,-1.74,0.64,0.24,1.87
35.076,-1.59,0.82,-0.21,1.80
35.086,-1.50,1.01,-0.54,1.89
35.096,-1.43,1.16,-0.74,1.98
35.106,-1.33,1.19,-0.68,1.91
35.116,-1.22,1.20,-0.43,1.77
35.126,-1.11,1.09,-0.16,1.57
35.136,-1.04,1.03,-0.02,1.46
35.147,-1.12,1.05,-0.03,1.54
35.156,-1.20,1.05,-0.27,1.62
35.167,-1.27,1.16,-0.56,1.81
35.177,-1.34,1.29,-0.71,1.99
35.187,-1.28,1.35,-0.75,2.01
35.197,-1.17,1.35,-0.64,1.90
35.207,-1.06,1.30,-0.43,1.73
35.217,-1.07,1.16,-0.25,1.59
35.227,-1.17,0.86,-0.10,1.46
35.237,-1.35,0.57,0.04,1.47
35.247,-1.52,0.32,0.16,1.57
35.257,-1.64,0.23,0.25,1.68
35.267,-1.76,0.17,0.31,1.79
35.277,-1.77,0.12,0.26,1.80
35.288,-1.81,0.15,0.23,1.84
35.298,-1.74,0.22,0.18,1.76
35.308,-1.65,0.14,0.13,1.67
35.318,-1.50,0.05,0.15,1.51
35.328,-1.34,-0.10,0.32,1.38
35.338,-1.19,-0.28,0.50,1.32
35.348,-1.12,-0.50,0.64,1.38
35.358,-1.09,-0.67,0.74,1.48
35.368,-1.10,-0.73,0.73,1.51
35.378,-1.15,-0.69,0.64,1.49
35.388,-1.23,-0.68,0.46,1.48
35.398,-1.31,-0.70,0.31,1.52
35.409,-1.30,-0.65,0.27,1.48
35.418,-1.21,-0.55,0.36,1.38
35.429,-1.06,-0.47,0.53,1.27
35.439,-0.97,-0.48,0.65,1.26
35.449,-1.00,-0.49,0.69,1.31
35.459,-1.06,-0.52,0.70,1.37
35.469,-1.03,-0.55,0.66,1.35
35.479,-1.02,-0.48,0.63,1.29
35.489,-1.04,-0.36,0.51,1.21
35.499,-1.10,-0.28,0.34,1.19
35.509,-1.18,-0.21,0.13,1.20
35.519,-1.20,-0.13,-0.04,1.21
35.530,-1.22,-0.01,-0.12,1.22
35.539,-1.13,0.06,-0.18,1.15
35.550,-0.94,0.14,-0.14,0.96
35.560,-0.67,0.25,0.01,0.72
35.570,-0.40,0.37,0.08,0.55
35.580,-0.16,0.45,0.04,0.48
35.590,0.02,0.51,-0.03,0.51
35.600,0.27,0.52,-0.04,0.58
35.610,0.54,0.49,0.03,0.73
35.620,0.79,0.46,0.19,0.93
35.630,0.95,0.43,0.26,1.08
35.640,1.06,0.41,0.25,1.17
35.651,1.07,0.36,0.13,1.13
35.660,1.10,0.37,-0.07,1.16
35.671,1.04,0.38,-0.11,1.11
35.681,1.05,0.29,-0.07,1.10
35.691,1.12,0.20,0.12,1.15
35.701,1.24,0.08,0.43,1.32
35.711,1.36,-0.05,0.73,1.55
35.721,1.44,-0.23,0.96,1.75
35.731,1.52,-0.36,1.11,1.91
35.741,1.62,-0.44,1.22,2.08
35.751,1.61,-0.50,1.09,2.01
35.761,1.56,-0.57,0.81,1.85
35.772,1.51,-0.62,0.51,1.71
35.782,1.49,-0.66,0.25,1.65
35.792,1.40,-0.73,0.01,1.58
35.802,1.33,-0.88,-0.23,1.61
35.812,1.30,-1.07,-0.38,1.73
35.822,1.30,-1.20,-0.38,1.80
35.832,1.34,-1.22,-0.32,1.84
35.842,1.43,-1.24,-0.23,1.91
35.852,1.53,-1.24,-0.18,1.98
35.862,1.63,-1.19,-0.26,2.03
35.872,1.73,-1.12,-0.37,2.10
35.882,1.82,-1.06,-0.61,2.19
35.892,1.78,-0.94,-0.80,2.17
35.902,1.73,-0.93,-1.03,2.22
35.913,1.71,-0.90,-1.18,2.26
35.923,1.63,-0.81,-1.22,2.19
35.933,1.52,-0.62,-1.21,2.04
35.943,1.43,-0.44,-1.28,1.97
35.953,1.55,-0.23,-1.21,1.98
35.963,1.81,0.04,-0.97,2.06
35.973,2.10,0.32,-0.71,2.24
35.983,2.41,0.52,-0.53,2.52
35.993,2.53,0.64,-0.42,2.65
36.003,2.57,0.71,-0.47,2.70
36.013,2.51,0.84,-0.60,2.71
36.023,2.51,0.91,-0.62,2.74
36.034,2.40,1.00,-0.43,2.63
36.044,2.30,0.99,-0.17,2.51
36.054,2.28,0.90,0.18,2.46
36.064,2.27,0.76,0.52,2.45
36.074,2.27,0.54,0.81,2.47
36.084,2.25,0.32,1.02,2.49
36.094,2.22,0.16,1.03,2.45
36.104,2.14,0.01,1.02,2.37
36.114,1.91,-0.11,0.92,2.13
36.124,1.57,-0.26,0.69,1.73
36.134,1.25,-0.36,0.43,1.37
36.144,1.02,-0.43,0.26,1.14
36.155,0.93,-0.45,0.18,1.04
36.164,0.88,-0.44,0.21,1.01
36.175,0.87,-0.42,0.21,0.99
36.185,0.83,-0.40,0.16,0.93
36.195,0.85,-0.38,0.12,0.94
36.205,1.00,-0.29,0.09,1.04
36.215,1.20,-0.17,0.07,1.21
36.225,1.21,-0.08,0.00,1.21
36.235,1.10,-0.10,-0.17,1.12
36.245,0.96,-0.20,-0.28,1.02
36.255,0.87,-0.28,-0.32,0.96
36.265,0.79,-0.37,-0.29,0.92
36.275,0.68,-0.43,-0.29,0.85
36.285,0.50,-0.52,-0.34,0.80
36.296,0.37,-0.68,-0.45,0.89
36.306,0.21,-0.78,-0.50,0.95
36.316,0.07,-0.77,-0.54,0.94
36.326,-0.00,-0.74,-0.56,0.93
36.336,-0.02,-0.70,-0.51,0.87
36.346,0.08,-0.71,-0.38,0.81
36.356,0.26,-0.64,-0.18,0.71
36.366,0.40,-0.49,-0.01,0.64
36.376,0.51,-0.39,0.06,0.64
36.386,0.52,-0.30,0.13,0.62
36.396,0.51,-0.23,0.19,0.59
36.406,0.46,-0.18,0.30,0.58
36.417,0.38,-0.18,0.39,0.57
36.426,0.25,-0.16,0.36,0.47
36.437,0.05,-0.15,0.25,0.30
36.447,-0.13,-0.11,0.03,0.18
36.457,-0.30,-0.02,-0.16,0.34
36.467,-0.43,0.13,-0.41,0.61
36.477,-0.50,0.30,-0.57,0.82
36.487,-0.45,0.38,-0.48,0.77
36.497,-0.41,0.46,-0.38,0.72
36.507,-0.36,0.56,-0.26,0.72
36.517,-0.35,0.57,-0.07,0.67
36.527,-0.31,0.46,0.14,0.57
36.538,-0.32,0.30,0.41,0.60
36.547,-0.43,0.14,0.64,0.78
36.558,-0.73,-0.12,0.68,1.00
36.568,-1.11,-0.34,0.55,1.28
36.578,-1.43,-0.40,0.36,1.53
36.588,-1.64,-0.39,0.19,1.70
36.598,-1.71,-0.35,0.05,1.74
36.608,-1.75,-0.27,-0.06,1.77
36.618,-1.79,-0.21,-0.16,1.81
36.628,-1.73,-0.12,-0.28,1.76
36.638,-1.57,0.02,-0.29,1.60
36.648,-1.41,0.12,-0.23,1.43
36.658,-1.31,0.17,-0.15,1.33
36.668,-1.27,0.15,-0.04,1.27
36.679,-1.26,0.09,0.10,1.27
36.689,-1.30,0.04,0.19,1.31
36.699,-1.34,0.03,0.16,1.35
36.709,-1.34,0.12,0.10,1.35
36.719,-1.33,0.23,0.03,1.35
36.729,-1.28,0.30,0.03,1.31
36.739,-1.18,0.40,0.08,1.25
36.749,-1.15,0.43,0.25,1.25
36.759,-1.11,0.39,0.52,1.28
36.769,-1.04,0.32,0.81,1.36
36.779,-1.09,0.19,1.06,1.53
36.789,-1.18,0.08,1.22,1.70
36.800,-1.35,0.00,1.30,1.87
36.809,-1.49,-0.06,1.24,1.94
36.820,-1.63,-0.09,1.08,1.96
36.830,-1.87,-0.06,0.87,2.06
36.840,-1.97,0.06,0.57,2.06
36.850,-2.02,0.26,0.12,2.04
36.860,-2.02,0.51,-0.30,2.10
36.870,-1.96,0.82,-0.49,2.18
36.880,-1.83,1.09,-0.60,2.21
36.890,-1.61,1.27,-0.52,2.12
36.900,-1.41,1.42,-0.34,2.03
36.910,-1.24,1.60,-0.22,2.04
36.921,-1.20,1.75,-0.26,2.14
36.930,-1.20,1.89,-0.50,2.29
36.941,-1.18,1.99,-0.66,2.41
36.951,-1.29,1.73,-0.89,2.33
36.961,-1.52,1.69,-0.49,2.32
36.971,-1.64,1.36,-0.42,2.17
36.981,-1.67,1.08,-0.32,2.01
36.991,-1.85,1.09,-0.03,2.14
37.001,-1.96,0.96,-0.13,2.19
37.011,-2.05,1.03,-0.08,2.29
37.021,-2.07,1.27,0.20,2.44
37.031,-1.93,1.20,0.41,2.31
37.041,-1.77,1.16,0.74,2.24
37.051,-1.57,1.02,1.08,2.17
37.062,-1.37,0.70,1.36,2.06
37.072,-1.26,0.37,1.52,2.01
37.082,-1.17,0.13,1.56,1.95
37.092,-1.12,0.02,1.42,1.81
37.102,-1.05,-0.07,1.10,1.52
37.112,-1.05,-0.11,0.72,1.28
37.122,-1.07,-0.05,0.37,1.13
37.132,-1.06,-0.02,0.12,1.07
37.142,-1.08,-0.05,0.05,1.08
37.152,-1.06,-0.10,0.09,1.07
37.162,-0.97,-0.16,0.32,1.04
37.173,-0.85,-0.19,0.59,1.05
37.183,-0.77,-0.21,0.76,1.10
37.193,-0.80,-0.31,0.78,1.16
37.203,-0.80,-0.39,0.81,1.20
37.213,-0.79,-0.41,0.81,1.20
37.223,-0.72,-0.38,0.77,1.12
37.233,-0.61,-0.35,0.73,1.01
37.243,-0.61,-0.26,0.72,0.98
37.253,-0.70,-0.25,0.64,0.99
37.263,-0.73,-0.23,0.54,0.93
37.273,-0.73,-0.14,0.46,0.87
37.283,-0.71,-0.15,0.44,0.85
37.293,-0.66,-0.23,0.49,0.86
37.304,-0.55,-0.26,0.68,0.91
37.313,-0.55,-0.21,0.54,0.80
37.324,-0.62,-0.29,0.34,0.76
37.334,-0.56,-0.41,0.38,0.79
37.344,-0.69,-0.49,0.30,0.90
37.354,-0.72,-0.57,0.24,0.95
37.364,-0.68,-0.58,0.09,0.90
37.374,-0.62,-0.49,-0.03,0.79
37.384,-0.62,-0.39,-0.22,0.76
37.394,-0.65,-0.29,-0.45,0.84
37.404,-0.73,-0.17,-0.65,0.99
37.414,-0.66,-0.05,-0.70,0.97
37.424,-0.51,0.12,-0.67,0.85
37.434,-0.36,0.22,-0.49,0.64
37.445,-0.21,0.33,-0.30,0.50
37.455,-0.07,0.46,-0.12,0.49
37.465,0.14,0.53,0.01,0.55
37.475,0.35,0.60,0.09,0.70
37.485,0.55,0.70,0.12,0.90
37.495,0.76,0.66,0.18,1.02
37.505,1.01,0.56,0.29,1.19
37.515,1.26,0.52,0.50,1.46
37.525,1.35,0.47,0.64,1.57
37.535,1.36,0.27,0.68,1.54
37.545,1.29,0.02,0.78,1.51
37.555,1.18,-0.24,0.87,1.49
37.566,0.97,-0.53,0.88,1.42
37.576,0.83,-0.82,0.82,1.43
37.586,0.72,-1.04,0.63,1.42
37.596,0.69,-1.22,0.36,1.45
37.606,0.76,-1.29,0.05,1.49
37.616,0.81,-1.25,-0.32,1.52
37.626,0.84,-1.17,-0.64,1.57
37.636,0.84,-1.11,-0.92,1.67
37.646,0.82,-1.06,-1.03,1.69
37.656,0.84,-0.92,-1.09,1.66
37.666,0.86,-0.77,-1.09,1.59
37.676,0.85,-0.64,-0.95,1.42
37.687,0.92,-0.56,-0.72,1.29
37.696,0.95,-0.55,-0.54,1.22
37.707,0.95,-0.59,-0.32,1.16
37.717,1.13,-0.59,-0.09,1.27
37.727,1.22,-0.56,-0.09,1.34
37.737,1.06,-0.54,-0.34,1.23
37.747,0.87,-0.55,-0.73,1.26
37.757,0.70,-0.66,-1.01,1.39
37.767,0.75,-0.58,-1.04,1.41
37.777,0.83,-0.46,-0.84,1.27
37.787,1.01,-0.24,-0.65,1.23
37.797,1.21,0.02,-0.47,1.30
37.807,1.59,0.41,-0.22,1.66
37.817,1.89,0.77,0.18,2.05
37.828,2.14,1.08,0.60,2.48
37.838,2.30,1.33,0.94,2.82
37.848,2.28,1.40,1.19,2.93
37.858,2.11,1.20,1.10,2.66
37.868,1.83,1.12,0.84,2.31
37.878,1.63,1.01,0.61,2.01
37.888,1.54,0.93,0.44,1.85
37.898,1.56,0.85,0.37,1.82
37.908,1.73,0.73,0.30,1.90
37.918,1.90,0.61,0.20,2.01
37.928,2.07,0.47,0.02,2.13
37.938,2.07,0.31,-0.18,2.10
37.949,2.02,0.12,-0.35,2.05
37.959,1.93,-0.02,-0.47,1.98
37.969,1.78,-0.18,-0.58,1.88
37.979,1.58,-0.34,-0.68,1.75
37.989,1.41,-0.47,-0.78,1.68
37.999,1.37,-0.48,-0.83,1.68
38.009,1.39,-0.43,-0.86,1.69
38.019,1.30,-0.45,-0.92,1.66
38.029,1.29,-0.54,-1.03,1.74
38.039,1.27,-0.56,-0.98,1.70
38.049,1.33,-0.61,-0.84,1.69
38.059,1.45,-0.65,-0.68,1.73
38.070,1.50,-0.68,-0.56,1.74
38.080,1.37,-0.66,-0.60,1.64
38.090,1.23,-0.65,-0.71,1.56
38.100,1.09,-0.65,-0.72,1.46
38.110,0.98,-0.71,-0.65,1.37
38.120,0.92,-0.79,-0.52,1.32
38.130,0.91,-0.86,-0.41,1.32
38.140,0.95,-0.90,-0.32,1.35
38.150,0.97,-0.85,-0.35,1.34
38.160,0.96,-0.86,-0.40,1.35
38.170,0.94,-0.84,-0.34,1.31
38.180,0.91,-0.81,-0.19,1.24
38.191,0.83,-0.85,-0.06,1.19
38.201,0.74,-0.90,0.02,1.16
38.211,0.57,-0.89,0.09,1.07
38.221,0.49,-0.85,0.15,0.99
38.231,0.40,-0.77,0.16,0.88
38.241,0.37,-0.70,0.06,0.79
38.251,0.46,-0.54,0.04,0.71
38.261,0.58,-0.39,0.11,0.71
38.271,0.66,-0.27,0.15,0.72
38.281,0.66,-0.14,0.18,0.70
38.291,0.52,-0.09,0.08,0.53
38.301,0.40,-0.04,-0.02,0.40
38.311,0.31,0.06,-0.19,0.37
38.322,0.11,0.15,-0.35,0.40
38.332,-0.02,0.22,-0.32,0.39
38.342,-0.12,0.21,-0.20,0.32
38.352,-0.31,0.27,-0.05,0.41
38.362,-0.54,0.19,0.09,0.58
38.372,-0.70,0.15,0.25,0.76
38.382,-0.73,0.17,0.53,0.92
38.392,-0.71,0.17,0.82,1.10
38.402,-0.65,0.15,0.97,1.17
38.412,-0.69,0.15,0.95,1.19
38.422,-0.79,0.13,0.88,1.19
38.433,-0.91,0.11,0.77,1.20
38.442,-0.99,0.12,0.74,1.25
38.453,-1.11,0.09,0.69,1.31
38.463,-1.16,0.02,0.66,1.34
38.473,-1.21,0.03,0.66,1.38
38.483,-1.30,-0.01,0.61,1.44
38.493,-1.44,-0.08,0.49,1.52
38.503,-1.61,-0.09,0.35,1.65
38.513,-1.67,-0.07,0.18,1.68
38.523,-1.67,-0.00,0.02,1.67
38.533,-1.66,0.11,-0.16,1.67
38.543,-1.72,0.22,-0.25,1.75
38.553,-1.77,0.19,-0.28,1.80
38.563,-1.73,0.20,-0.08,1.74
38.574,-1.67,0.22,0.20,1.69
38.584,-1.65,0.15,0.50,1.73
38.594,-1.68,0.09,0.71,1.82
38.604,-1.74,0.08,0.80,1.91
38.614,-1.81,0.12,0.88,2.02
38.624,-1.88,0.15,0.92,2.10
38.634,-1.90,0.20,0.93,2.13
38.644,-1.85,0.36,0.94,2.11
38.654,-1.87,0.48,0.79,2.08
38.664,-1.87,0.63,0.56,2.05
38.674,-1.79,0.81,0.27,1.98
38.684,-1.71,1.02,0.07,1.99
38.694,-1.59,1.22,0.03,2.00
38.704,-1.41,1.38,0.01,1.97
38.715,-1.21,1.56,-0.00,1.97
38.725,-1.10,1.61,-0.12,1.95
38.735,-1.07,1.67,-0.38,2.02
38.745,-1.06,1.74,-0.56,2.11
38.755,-1.09,1.78,-0.56,2.16
38.765,-1.06,1.79,-0.47,2.13
38.775,-1.14,1.69,-0.28,2.05
38.785,-1.14,1.49,0.00,1.87
38.795,-1.06,1.24,0.36,1.67
38.805,-0.96,1.02,0.71,1.57
38.815,-0.81,0.82,1.02,1.54
38.825,-0.69,0.62,1.29,1.59
38.836,-0.60,0.45,1.43,1.62
38.846,-0.55,0.27,1.50,1.62
38.856,-0.42,0.15,1.46,1.53
38.866,-0.29,0.08,1.41,1.44
38.876,-0.23,-0.06,1.27,1.29
38.886,-0.15,-0.15,1.07,1.09
38.896,-0.09,-0.23,0.92,0.95
38.906,0.15,-0.22,0.87,0.91
38.916,0.38,-0.18,0.99,1.07
38.926,0.50,-0.21,1.13,1.26
38.936,0.60,-0.22,1.20,1.36
38.946,0.64,-0.16,1.26,1.42
38.957,0.66,-0.04,1.23,1.39
38.966,0.56,0.09,1.05,1.19
38.977,0.35,0.23,0.73,0.84
38.987,-0.01,0.26,0.45,0.52
38.997,-0.35,0.14,0.31,0.49
39.007,-0.67,-0.03,0.25,0.72
39.017,-0.98,-0.24,0.27,1.04
39.027,-1.13,-0.42,0.32,1.25
39.037,-1.32,-0.50,0.40,1.46
39.047,-1.55,-0.67,0.47,1.75
39.057,-1.72,-0.79,0.47,1.95
39.067,-1.83,-0.85,0.47,2.08
39.078,-1.97,-0.91,0.51,2.23
39.088,-1.96,-0.86,0.58,2.22
39.098,-1.82,-0.77,0.64,2.07
39.108,-1.57,-0.72,0.67,1.85
39.118,-1.30,-0.66,0.66,1.60
39.128,-1.07,-0.58,0.65,1.38
39.138,-0.88,-0.47,0.57,1.15
39.148,-0.75,-0.30,0.41,0.91
39.158,-0.76,-0.15,0.21,0.81
39.168,-0.73,-0.08,0.09,0.74
39.178,-0.65,0.05,0.10,0.66
39.188,-0.56,0.16,0.17,0.61
39.199,-0.50,0.23,0.18,0.58
39.208,-0.41,0.27,0.26,0.56
39.219,-0.35,0.28,0.43,0.62
39.229,-0.30,0.24,0.71,0.80
39.239,-0.20,0.19,0.97,1.01
39.249,-0.10,0.13,1.14,1.15
39.259,0.07,0.06,1.26,1.26
39.269,0.29,-0.03,1.24,1.27
39.279,0.47,-0.06,1.08,1.18
39.289,0.66,-0.08,0.90,1.12
39.299,0.89,-0.08,0.68,1.13
39.309,1.11,-0.05,0.39,1.17
39.319,1.21,-0.10,0.05,1.21
39.329,1.19,-0.15,-0.27,1.23
39.339,1.05,-0.31,-0.50,1.20
39.350,0.92,-0.42,-0.56,1.15
39.360,0.71,-0.52,-0.50,1.01
39.370,0.55,-0.70,-0.38,0.97
39.380,0.39,-0.84,-0.23,0.95
39.390,0.24,-0.94,-0.11,0.98
39.400,0.14,-0.99,-0.05,1.00
39.410,0.04,-1.03,-0.02,1.03
39.420,0.01,-1.06,0.00,1.06
39.430,0.08,-1.02,0.00,1.03
39.440,0.21,-0.94,-0.03,0.97
39.450,0.38,-0.84,-0.05,0.92
39.461,0.54,-0.68,-0.07,0.87
39.470,0.79,-0.60,-0.07,1.00
39.481,0.85,-0.49,-0.15,0.99
39.491,0.92,-0.40,-0.27,1.04
39.501,1.08,-0.29,-0.33,1.16
39.511,1.26,-0.18,-0.30,1.31
39.521,1.41,-0.14,-0.32,1.45
39.531,1.50,-0.19,-0.39,1.56
39.541,1.57,-0.19,-0.59,1.69
39.551,1.58,-0.14,-0.87,1.81
39.561,1.51,-0.10,-1.10,1.87
39.571,1.57,-0.06,-1.21,1.98
39.581,1.68,0.02,-1.33,2.14
39.591,1.76,0.10,-1.47,2.29
39.601,1.98,0.18,-1.62,2.56
39.611,2.25,0.29,-1.72,2.85
39.622,2.41,0.38,-1.89,3.08
39.632,2.42,0.40,-2.12,3.24
39.642,2.47,0.42,-2.20,3.33
39.652,2.41,0.49,-2.24,3.33
39.662,2.21,0.49,-2.18,3.14
39.672,1.93,0.60,-2.04,2.87
39.682,1.79,0.87,-1.76,2.66
39.692,1.72,1.18,-1.29,2.45
39.702,1.78,1.43,-0.76,2.41
39.712,2.02,1.71,0.14,2.65
39.723,2.35,1.65,0.92,3.02
39.733,2.75,1.54,1.66,3.56
39.743,3.06,1.37,2.19,4.01
39.753,3.25,1.11,2.44,4.21
39.763,3.23,0.77,2.38,4.08
39.773,2.93,0.51,2.18,3.68
39.783,2.46,0.18,1.64,2.96
39.793,2.00,-0.17,1.00,2.24
39.803,1.46,-0.39,0.43,1.57
39.813,0.99,-0.55,-0.02,1.13
39.823,0.73,-0.68,-0.32,1.05
39.833,0.60,-0.71,-0.51,1.06
39.844,0.59,-0.72,-0.62,1.12
39.854,0.68,-0.64,-0.69,1.16
39.864,0.74,-0.49,-0.71,1.14
39.874,0.75,-0.41,-0.80,1.17
39.884,0.69,-0.34,-0.80,1.11
39.894,0.58,-0.28,-0.70,0.95
39.904,0.44,-0.28,-0.55,0.76
39.914,0.36,-0.34,-0.37,0.62
39.924,0.34,-0.31,-0.10,0.47
39.934,0.30,-0.31,0.12,0.45
39.944,0.29,-0.42,0.21,0.55
39.954,0.30,-0.43,0.23,0.57
39.964,0.26,-0.50,0.23,0.61
39.974,0.27,-0.56,0.23,0.66
39.985,0.30,-0.58,0.23,0.69
39.995,0.29,-0.52,0.17,0.62
40.005,0.25,-0.51,-0.05,0.57
40.015,0.17,-0.51,-0.25,0.59
40.025,0.17,-0.46,-0.41,0.64
40.035,0.13,-0.37,-0.49,0.63
40.045,0.07,-0.33,-0.52,0.62
40.055,0.06,-0.28,-0.57,0.64
40.065,0.02,-0.21,-0.64,0.67
40.075,-0.00,-0.07,-0.74,0.74
40.085,0.13,0.17,-0.73,0.76
40.095,0.28,0.47,-0.64,0.85
40.106,0.41,0.66,-0.60,0.99
40.116,0.56,0.87,-0.61,1.21
40.126,0.75,0.94,-0.68,1.38
40.136,0.77,0.87,-0.60,1.31
40.146,0.73,1.40,-0.04,1.58
40.156,0.70,1.04,-0.26,1.28
40.166,0.23,0.63,-0.27,0.73
40.176,-0.24,0.57,-0.10,0.63
40.186,-0.53,0.25,0.11,0.60
40.196,-0.74,-0.09,0.29,0.80
40.206,-0.85,-0.28,0.53,1.04
40.216,-0.88,-0.49,0.63,1.18
40.226,-0.99,-0.60,0.56,1.29
40.236,-1.11,-0.71,0.38,1.37
40.247,-1.10,-0.74,0.14,1.34
40.257,-1.15,-0.62,0.02,1.30
40.267,-1.20,-0.63,-0.09,1.36
40.277,-1.14,-0.63,-0.15,1.31
40.287,-1.05,-0.60,-0.13,1.21
40.297,-0.99,-0.55,-0.09,1.14
40.307,-0.98,-0.64,-0.07,1.17
40.317,-1.04,-0.73,-0.24,1.29
40.327,-1.18,-0.75,-0.26,1.42
40.337,-1.18,-0.73,-0.47,1.47
40.347,-1.17,-0.62,-0.73,1.51
40.357,-1.14,-0.47,-0.93,1.54
40.368,-1.21,-0.34,-1.19,1.74
40.378,-1.15,-0.12,-1.24,1.70
40.388,-1.04,0.10,-1.14,1.55
40.398,-0.85,0.21,-0.95,1.29
40.408,-0.72,0.21,-0.63,0.98
40.418,-0.65,0.10,-0.28,0.72
40.428,-0.68,-0.14,0.14,0.71
40.438,-0.75,-0.33,0.67,1.06
40.448,-1.15,-0.40,0.78,1.45
40.458,-1.48,-0.50,0.82,1.77
40.468,-1.53,-0.46,1.06,1.92
40.478,-1.67,-0.32,1.30,2.14
40.489,-1.67,-0.07,1.40,2.17
40.499,-1.70,0.25,1.40,2.22
40.509,-1.60,0.55,1.38,2.18
40.519,-1.46,0.84,1.28,2.12
40.529,-1.31,1.09,1.21,2.09
40.539,-1.21,1.26,1.05,2.03
40.549,-1.16,1.33,0.97,2.01
40.559,-1.14,1.32,0.93,1.97
40.569,-1.08,1.39,0.79,1.92
40.579,-1.05,1.51,0.62,1.94
40.589,-1.12,1.63,0.46,2.03
40.599,-1.20,1.72,0.31,2.12
40.610,-1.32,1.73,0.15,2.18
40.620,-1.51,1.75,0.01,2.32
40.630,-1.63,1.65,-0.01,2.32
40.640,-1.67,1.49,0.17,2.24
40.650,-1.63,1.29,0.51,2.14
40.660,-1.61,0.97,0.91,2.09
40.670,-1.58,0.64,1.26,2.12
40.680,-1.50,0.42,1.48,2.15
40.690,-1.38,0.28,1.56,2.11
40.700,-1.32,0.17,1.53,2.02
40.710,-1.31,0.11,1.41,1.93
40.720,-1.27,0.15,1.22,1.76
40.731,-1.19,0.16,1.12,1.64
40.740,-1.07,0.10,1.02,1.48
40.751,-0.93,0.06,1.04,1.40
40.761,-0.75,0.03,1.08,1.32
40.771,-0.65,-0.02,1.13,1.30
40.781,-0.59,-0.14,1.16,1.31
40.791,-0.59,-0.19,1.23,1.38
40.801,-0.60,-0.21,1.26,1.41
40.811,-0.61,-0.21,1.22,1.38
40.821,-0.62,-0.20,1.06,1.25
40.831,-0.64,-0.17,0.95,1.16
40.841,-0.64,-0.15,0.84,1.07
40.851,-0.58,-0.13,0.76,0.97
40.861,-0.61,-0.20,0.63,0.90
40.872,-0.56,-0.30,0.53,0.83
40.882,-0.53,-0.43,0.57,0.89
40.892,-0.45,-0.56,0.67,0.98
40.902,-0.48,-0.76,0.83,1.23
40.912,-0.54,-0.96,0.81,1.37
40.922,-0.56,-1.02,0.90,1.47
40.932,-0.55,-1.04,0.87,1.46
40.942,-0.58,-1.01,0.76,1.39
40.952,-0.69,-0.93,0.60,1.31
40.962,-0.82,-0.85,0.22,1.20
40.972,-0.96,-0.59,-0.07,1.13
40.982,-0.97,-0.34,-0.28,1.07
40.993,-0.84,-0.17,-0.40,0.94
41.003,-0.64,0.07,-0.35,0.73
41.013,-0.36,0.33,-0.28,0.56
41.023,-0.04,0.55,-0.12,0.57
41.033,0.15,0.64,0.10,0.66
41.043,0.20,0.57,0.35,0.70
41.053,0.25,0.53,0.57,0.82
41.063,0.33,0.48,0.89,1.06
41.073,0.52,0.46,1.16,1.35
41.083,0.60,0.46,1.32,1.53
41.093,0.65,0.39,1.38,1.58
41.103,0.60,0.16,1.25,1.40
41.113,0.59,-0.06,0.98,1.15
41.123,0.47,-0.18,0.71,0.87
41.134,0.39,-0.35,0.47,0.71
41.144,0.47,-0.40,0.27,0.67
41.154,0.55,-0.45,0.03,0.71
41.164,0.66,-0.32,-0.15,0.75
41.174,0.72,-0.35,-0.40,0.89
41.184,0.86,-0.33,-0.60,1.10
41.194,1.05,-0.32,-0.78,1.34
41.204,1.28,-0.33,-0.92,1.61
41.214,1.39,-0.37,-0.95,1.72
41.224,1.51,-0.42,-0.94,1.83
41.234,1.60,-0.48,-0.98,1.94
41.244,1.59,-0.50,-0.95,1.92
41.255,1.52,-0.52,-0.90,1.84
41.265,1.51,-0.55,-0.96,1.87
41.275,1.48,-0.54,-1.04,1.88
41.285,1.48,-0.52,-1.04,1.88
41.295,1.53,-0.59,-1.11,1.98
41.305,1.62,-0.69,-1.07,2.06
41.315,1.70,-0.79,-0.96,2.11
41.325,1.80,-0.84,-0.90,2.19
41.335,1.97,-0.89,-0.75,2.29
41.345,2.12,-0.85,-0.56,2.35
41.355,2.29,-0.83,-0.43,2.48
41.365,2.46,-0.71,-0.41,2.59
41.376,2.47,-0.51,-0.46,2.57
41.386,2.37,-0.31,-0.71,2.49
41.396,2.18,-0.19,-1.04,2.42
41.406,2.03,-0.05,-1.38,2.46
41.416,1.91,0.31,-1.52,2.46
41.426,2.00,0.70,-1.56,2.63
41.436,2.08,0.90,-1.56,2.75
41.446,2.05,1.01,-1.60,2.79
41.456,2.05,1.12,-1.55,2.81
41.466,2.02,1.23,-1.54,2.82
41.476,1.99,1.25,-1.43,2.75
41.486,1.96,1.21,-1.17,2.59
41.496,2.02,1.07,-0.92,2.46
41.507,2.16,0.89,-0.59,2.41
41.517,2.26,0.74,-0.27,2.40
41.527,2.36,0.50,-0.01,2.42
41.537,2.40,0.27,0.18,2.43
41.547,2.38,0.11,0.32,2.40
41.557,2.31,-0.03,0.38,2.34
41.567,2.10,-0.21,0.43,2.15
41.577,1.89,-0.41,0.45,1.98
41.587,1.73,-0.51,0.46,1.86
41.597,1.66,-0.60,0.51,1.83
41.607,1.58,-0.67,0.49,1.79
41.618,1.46,-0.66,0.34,1.63
41.627,1.27,-0.63,0.18,1.43
41.639,1.11,-0.68,0.01,1.30
41.648,0.97,-0.70,-0.11,1.20
41.658,0.93,-0.73,-0.12,1.19
41.668,0.86,-0.73,-0.09,1.13
41.678,0.86,-0.70,-0.04,1.11
41.688,0.77,-0.75,0.05,1.08
41.698,0.68,-0.80,0.11,1.06
41.708,0.54,-0.84,0.19,1.01
41.718,0.43,-0.79,0.19,0.92
41.728,0.30,-0.76,0.05,0.81
41.739,0.14,-0.82,-0.03,0.83
41.748,0.04,-0.83,-0.17,0.85
41.759,-0.03,-0.80,-0.26,0.84
41.769,-0.06,-0.72,-0.31,0.78
41.779,-0.03,-0.73,-0.28,0.79
41.789,-0.00,-0.69,-0.26,0.74
41.799,0.05,-0.69,-0.36,0.78
41.809,0.08,-0.69,-0.44,0.82
41.819,0.09,-0.66,-0.52,0.85
41.830,0.09,-0.60,-0.63,0.87
41.839,0.06,-0.50,-0.73,0.89
41.849,0.05,-0.39,-0.81,0.89
41.859,-0.05,-0.31,-0.80,0.86
41.869,-0.10,-0.31,-0.64,0.72
41.880,-0.11,-0.33,-0.39,0.52
41.890,-0.07,-0.30,-0.20,0.36
41.900,-0.08,-0.18,-0.09,0.21
41.910,-0.08,-0.08,-0.00,0.11
41.920,0.03,0.04,0.02,0.06
41.930,0.22,0.31,-0.09,0.39
41.940,0.21,0.47,-0.19,0.55
41.950,0.09,0.35,-0.33,0.49
41.960,-0.13,0.08,-0.47,0.50
41.970,0.50,1.10,-0.50,1.31
41.980,0.71,1.19,-0.43,1.45
41.990,0.37,0.52,-0.41,0.76
42.001,0.13,0.25,-0.43,0.51
42.010,0.08,0.29,-0.30,0.42
42.021,-0.01,0.12,-0.03,0.13
42.031,-0.28,-0.17,0.16,0.37
42.041,-0.57,-0.40,0.24,0.74
42.051,-0.76,-0.51,0.23,0.94
42.061,-1.00,-0.56,0.17,1.16
42.071,-1.19,-0.55,0.02,1.31
42.081,-1.27,-0.52,-0.04,1.37
42.091,-1.26,-0.40,-0.01,1.33
42.101,-1.22,-0.28,0.05,1.25
42.111,-1.13,-0.14,0.10,1.14
42.121,-1.06,-0.03,0.10,1.06
42.131,-1.00,0.08,0.14,1.02
42.142,-0.90,0.18,0.21,0.94
42.152,-0.87,0.29,0.26,0.95
42.162,-0.80,0.41,0.31,0.95
42.172,-0.70,0.51,0.49,1.00
42.182,-0.63,0.53,0.68,1.07
42.192,-0.61,0.50,0.96,1.24
42.202,-0.55,0.47,1.17,1.38
42.212,-0.50,0.40,1.34,1.49
42.222,-0.54,0.26,1.52,1.63
42.232,-0.61,0.11,1.62,1.74
42.242,-0.85,-0.01,1.58,1.79
42.252,-1.17,-0.07,1.52,1.92
42.263,-1.50,-0.05,1.42,2.06
42.273,-1.68,0.10,1.34,2.16
42.283,-1.83,0.20,1.20,2.20
42.293,-1.91,0.28,1.09,2.22
42.303,-1.96,0.32,1.02,2.24
42.313,-1.91,0.36,0.83,2.12
42.323,-1.82,0.51,0.76,2.04
42.333,-1.67,0.71,0.75,1.96
42.343,-1.37,0.98,0.82,1.88
42.353,-0.99,1.26,0.98,1.88
42.363,-0.60,1.39,1.08,1.86
42.373,-0.27,1.49,1.07,1.85
42.383,0.02,1.53,1.07,1.86
42.393,0.19,1.56,0.99,1.86
42.404,0.33,1.64,0.78,1.85
42.414,0.39,1.79,0.53,1.91
42.424,0.29,1.86,0.18,1.90
42.434,0.06,1.75,-0.15,1.76
42.444,-0.24,1.53,-0.34,1.58
42.454,-0.55,1.28,-0.39,1.45
42.464,-0.79,0.93,-0.55,1.33
42.474,-1.08,0.76,-0.49,1.41
42.484,-1.31,0.53,-0.48,1.49
42.494,-1.49,0.32,-0.47,1.60
42.505,-1.63,0.25,-0.31,1.68
42.514,-1.69,0.21,-0.17,1.71
42.525,-1.68,0.24,-0.00,1.70
42.535,-1.63,0.31,0.13,1.67
42.545,-1.54,0.32,0.24,1.59
42.555,-1.44,0.33,0.38,1.52
42.565,-1.27,0.35,0.45,1.40
42.575,-1.13,0.39,0.52,1.30
42.585,-1.02,0.39,0.53,1.21
42.597,-0.98,0.35,0.48,1.15
42.605,-1.00,0.24,0.42,1.11
42.615,-0.97,0.14,0.35,1.04
42.625,-0.98,0.08,0.25,1.01
42.635,-1.10,-0.05,0.18,1.12
42.646,-1.25,-0.28,0.05,1.28
42.656,-1.38,-0.43,-0.02,1.44
42.666,-1.37,-0.46,-0.07,1.44
42.676,-1.21,-0.42,-0.08,1.28
42.686,-1.09,-0.43,-0.00,1.17
42.696,-0.97,-0.50,0.19,1.11
42.706,-0.86,-0.55,0.48,1.13
42.716,-0.76,-0.59,0.75,1.22
42.726,-0.73,-0.57,1.03,1.39
