time,ax,ay,az,atotal
0.000,-0.38,-1.38,0.77,1.63
0.010,-0.42,-1.37,0.73,1.61
0.020,-0.44,-1.16,0.60,1.38
0.030,-0.44,-0.94,0.48,1.15
0.040,-0.48,-0.84,0.46,1.07
0.051,-0.45,-0.82,0.55,1.09
0.060,-0.42,-0.94,0.54,1.16
0.071,-0.67,-1.11,0.47,1.38
0.081,-1.00,-1.32,0.43,1.71
0.091,-1.20,-1.55,0.44,2.01
0.101,-1.41,-1.72,0.51,2.28
0.111,-1.50,-1.79,0.57,2.40
0.121,-1.50,-1.65,0.59,2.31
0.131,-1.45,-1.37,0.53,2.06
0.141,-1.29,-1.07,0.38,1.71
0.151,-1.13,-0.71,0.16,1.35
0.161,-1.00,-0.30,0.03,1.05
0.172,-0.81,0.08,-0.01,0.82
0.181,-0.63,0.41,0.03,0.75
0.192,-0.45,0.60,0.14,0.76
0.202,-0.28,0.63,0.23,0.73
0.212,-0.21,0.57,0.46,0.76
0.222,-0.22,0.43,0.82,0.95
0.232,-0.23,0.28,1.10,1.16
0.242,-0.27,0.22,1.13,1.19
0.252,-0.33,0.25,0.95,1.03
0.262,-0.30,0.41,0.50,0.72
0.272,-0.15,0.66,-0.05,0.67
0.282,-0.04,0.82,-0.42,0.92
0.293,-0.01,0.80,-0.65,1.03
0.303,-0.03,0.74,-0.83,1.11
0.313,-0.11,0.58,-0.92,1.09
0.323,-0.23,0.28,-0.92,0.99
0.333,-0.40,-0.04,-0.87,0.96
0.343,-0.53,-0.27,-0.73,0.94
0.353,-0.52,-0.39,-0.62,0.90
0.363,-0.45,-0.33,-0.73,0.92
0.373,-0.36,-0.11,-1.01,1.08
0.383,-0.27,0.07,-1.34,1.37
0.393,-0.15,0.22,-1.56,1.58
0.403,0.03,0.35,-1.67,1.70
0.413,0.21,0.39,-1.60,1.66
0.423,0.28,0.28,-1.36,1.42
0.434,0.33,0.08,-0.94,1.00
0.444,0.40,-0.09,-0.36,0.55
0.454,0.43,-0.32,0.21,0.58
0.464,0.43,-0.49,0.63,0.90
0.474,0.37,-0.54,0.83,1.06
0.484,0.28,-0.56,0.81,1.03
0.494,0.15,-0.54,0.61,0.83
0.504,-0.02,-0.49,0.29,0.57
0.514,-0.19,-0.40,0.06,0.45
0.524,-0.23,-0.30,-0.18,0.42
0.534,-0.20,-0.19,-0.45,0.53
0.544,-0.29,-0.10,-0.59,0.66
0.555,-0.42,-0.09,-0.49,0.65
0.564,-0.53,-0.07,-0.22,0.58
0.575,-0.57,-0.01,0.17,0.59
0.585,-0.56,0.06,0.58,0.81
0.595,-0.49,0.11,0.82,0.96
0.605,-0.41,0.23,0.93,1.04
0.615,-0.33,0.36,0.89,1.01
0.625,-0.32,0.44,0.73,0.91
0.635,-0.40,0.42,0.54,0.79
0.645,-0.44,0.34,0.24,0.61
0.655,-0.45,0.21,0.10,0.51
0.665,-0.45,0.03,0.18,0.48
0.675,-0.34,-0.14,0.43,0.56
0.685,-0.18,-0.31,0.73,0.81
0.696,-0.11,-0.43,0.97,1.07
0.706,-0.04,-0.48,1.14,1.23
0.716,0.06,-0.50,1.10,1.21
0.726,0.04,-0.41,0.84,0.94
0.736,-0.06,-0.32,0.48,0.58
0.746,-0.20,-0.27,0.16,0.37
0.756,-0.38,-0.16,-0.12,0.43
0.766,-0.53,-0.05,-0.34,0.63
0.776,-0.68,-0.07,-0.33,0.76
0.786,-0.84,-0.23,-0.20,0.89
0.797,-0.98,-0.25,0.21,1.04
0.806,-1.00,-0.38,0.80,1.34
0.817,-0.79,-0.70,1.07,1.50
0.827,-0.40,-0.60,1.02,1.25
0.837,-0.38,-0.48,0.79,1.00
0.847,-0.40,-0.42,0.47,0.74
0.857,-0.34,-0.41,0.20,0.57
0.867,-0.34,-0.43,0.08,0.55
0.877,-0.35,-0.47,0.04,0.59
0.887,-0.27,-0.59,-0.01,0.65
0.897,-0.20,-0.82,-0.15,0.86
0.907,-0.26,-1.11,-0.35,1.19
0.917,-0.52,-1.39,-0.58,1.59
0.927,-0.85,-1.72,-0.80,2.08
0.938,-1.04,-2.01,-0.85,2.41
0.947,-0.88,-2.28,-0.84,2.59
0.958,-0.75,-2.62,-0.99,2.89
0.968,-0.88,-2.82,-1.17,3.18
0.978,-1.12,-3.11,-1.33,3.57
0.988,-1.05,-2.89,-1.26,3.32
0.998,-0.24,-1.56,-1.00,1.87
1.008,0.67,-0.53,-1.16,1.44
1.018,1.32,-0.28,-1.52,2.03
1.028,1.70,-0.33,-1.99,2.63
1.038,1.68,0.04,-2.17,2.75
1.048,1.71,0.76,-1.74,2.56
1.059,1.93,1.39,-0.96,2.56
1.069,2.10,1.97,-0.78,2.98
1.079,2.23,2.56,-1.12,3.57
1.089,2.26,3.00,-0.95,3.88
1.099,2.47,3.36,-0.35,4.19
1.109,2.57,3.81,0.53,4.63
1.119,2.72,4.01,1.45,5.06
1.129,3.02,4.02,2.34,5.55
1.139,3.02,3.58,2.97,5.54
1.149,2.52,3.24,3.14,5.17
1.159,2.14,3.07,3.40,5.05
1.169,2.11,2.41,3.80,4.97
1.180,2.13,1.67,4.11,4.92
1.189,2.33,1.20,4.14,4.90
1.200,2.74,0.65,3.66,4.62
1.210,3.31,0.65,2.63,4.27
1.220,3.93,0.90,1.54,4.32
1.230,4.31,1.12,0.19,4.45
1.240,4.22,0.92,-1.58,4.60
1.250,4.19,0.74,-3.12,5.28
1.260,4.31,0.68,-4.01,5.93
1.270,2.05,1.71,-4.06,4.86
1.280,-1.01,2.73,-3.45,4.52
1.290,0.37,0.89,-3.20,3.34
1.300,2.49,-0.96,-2.09,3.39
1.310,2.82,-0.88,-1.23,3.20
1.321,2.42,-0.32,-1.65,2.95
1.330,2.08,-0.20,-1.98,2.88
1.341,1.27,-0.60,-2.25,2.66
1.351,0.58,-0.93,-2.34,2.58
1.361,0.18,-1.06,-2.23,2.47
1.371,-0.16,-1.21,-2.07,2.40
1.381,-0.70,-1.80,-1.75,2.60
1.391,-0.96,-1.76,-1.01,2.24
1.401,-0.19,-0.40,-0.48,0.66
1.411,0.72,0.41,0.06,0.83
1.421,1.40,0.43,0.53,1.56
1.431,1.28,0.62,0.73,1.60
1.441,0.57,0.87,0.54,1.17
1.451,0.08,0.86,-0.03,0.86
1.462,-0.05,0.79,-0.60,0.99
1.472,-0.18,0.86,-0.69,1.12
1.482,-0.31,1.02,-0.25,1.09
1.492,-0.35,0.86,0.42,1.02
1.502,-0.42,0.35,0.96,1.10
1.512,-0.48,-0.17,1.25,1.35
1.522,-0.43,-0.52,1.36,1.52
1.532,-0.44,-0.71,1.21,1.47
1.542,-0.59,-0.83,0.73,1.25
1.552,-0.78,-0.90,0.16,1.20
1.562,-1.00,-1.06,-0.59,1.57
1.572,-1.27,-1.26,-1.23,2.16
1.583,-1.65,-1.34,-1.41,2.55
1.593,-1.71,-1.35,-1.50,2.65
1.603,-1.71,-1.36,-1.68,2.76
1.613,-1.77,-1.34,-1.84,2.88
1.623,-2.01,-1.45,-1.88,3.11
1.633,-2.66,-1.92,-1.93,3.80
1.643,-2.61,-1.67,-1.93,3.65
1.653,-1.99,-0.65,-1.77,2.74
1.663,-1.30,0.01,-1.62,2.08
1.673,-1.10,0.02,-1.25,1.66
1.684,-1.51,0.25,0.46,1.60
1.693,-1.19,0.27,0.98,1.57
1.704,-0.70,0.24,1.00,1.25
1.714,-0.61,0.29,0.96,1.17
1.724,-0.84,0.17,0.67,1.08
1.734,-1.09,0.19,0.25,1.13
1.744,-1.04,0.31,0.01,1.09
1.754,-0.93,0.35,-0.00,1.00
1.764,-0.55,0.63,0.06,0.84
1.774,-0.16,1.12,0.14,1.14
1.784,0.08,1.59,0.15,1.60
1.794,0.32,2.05,0.06,2.08
1.804,0.45,2.59,-0.20,2.64
1.814,0.35,3.03,-0.59,3.11
1.825,0.09,3.15,-0.79,3.25
1.834,-0.38,3.00,-0.77,3.12
1.845,-0.99,2.94,-0.57,3.16
1.855,-1.28,2.94,0.01,3.21
1.865,-1.08,2.95,1.17,3.36
1.875,-1.10,2.87,2.27,3.82
1.885,-1.24,2.74,3.19,4.38
1.895,-1.16,2.25,3.83,4.59
1.905,-0.78,1.36,3.98,4.27
1.915,-0.39,0.54,3.58,3.64
1.925,-0.56,0.15,3.04,3.10
1.935,-1.16,0.21,2.47,2.73
1.946,-1.64,0.57,1.72,2.45
1.956,-2.06,0.92,0.82,2.40
1.966,-2.53,1.07,0.22,2.76
1.975,-2.56,1.01,-0.01,2.75
1.986,-2.19,0.71,0.09,2.30
1.996,-1.57,0.37,0.44,1.67
2.006,-0.89,0.22,0.73,1.17
2.016,-0.53,0.09,0.66,0.85
2.026,-0.32,-0.22,0.34,0.52
2.036,-0.35,-0.46,-0.09,0.59
2.046,-0.64,-0.67,-0.45,1.02
2.056,-0.78,-1.02,-0.85,1.54
2.067,-0.14,-1.48,-1.31,1.98
2.076,0.85,-1.89,-1.59,2.61
2.087,0.70,-1.76,-1.55,2.45
2.097,-0.32,-1.44,-1.23,1.92
2.107,-1.13,-1.29,-0.81,1.90
2.117,-1.87,-1.11,-0.50,2.23
2.127,-1.82,-1.25,-0.43,2.25
2.137,-1.39,-1.40,-0.54,2.04
2.147,-1.16,-1.36,-0.68,1.91
2.157,-0.98,-1.29,-0.73,1.78
2.167,-0.78,-1.33,-0.76,1.72
2.177,-0.75,-1.31,-0.69,1.66
2.187,-0.79,-1.07,-0.39,1.38
2.197,-0.83,-0.86,-0.06,1.20
2.208,-0.85,-0.79,0.22,1.18
2.218,-0.87,-0.67,0.29,1.13
2.228,-0.83,-0.44,0.18,0.96
2.238,-0.55,-0.23,-0.04,0.60
2.248,-0.21,-0.06,-0.37,0.43
2.258,-0.21,-0.04,-0.29,0.36
2.268,-0.36,-0.04,0.13,0.39
2.278,-0.35,0.00,0.45,0.57
2.288,-0.19,-0.04,0.57,0.60
2.298,-0.02,-0.14,0.60,0.62
2.308,0.24,-0.21,0.68,0.75
2.318,0.50,-0.21,0.75,0.93
2.328,0.83,-0.23,0.77,1.16
2.338,1.10,-0.39,0.82,1.43
2.349,1.13,-0.58,0.82,1.51
2.359,1.10,-0.76,0.67,1.50
2.369,1.09,-0.93,0.50,1.52
2.379,1.04,-1.04,0.28,1.50
2.389,1.08,-1.10,-0.00,1.54
2.399,1.28,-1.08,-0.33,1.70
2.409,1.48,-1.10,-0.55,1.92
2.419,1.65,-1.10,-0.75,2.13
2.429,1.74,-1.14,-0.96,2.29
2.439,1.76,-1.20,-1.17,2.43
2.450,1.77,-1.29,-1.39,2.60
2.459,1.72,-1.41,-1.65,2.77
2.470,1.65,-1.44,-1.98,2.95
2.479,1.55,-1.37,-2.27,3.08
2.490,1.58,-1.26,-2.50,3.21
2.500,1.77,-1.19,-2.59,3.35
2.510,2.21,-0.96,-2.43,3.42
2.520,2.87,-0.60,-2.09,3.60
2.530,3.55,-0.23,-1.45,3.85
2.540,4.30,0.16,-0.51,4.33
2.550,4.81,0.53,0.53,4.87
2.560,4.85,0.81,1.37,5.10
2.570,4.57,1.01,1.89,5.04
2.580,4.16,1.28,2.28,4.91
2.591,3.68,1.66,2.50,4.75
2.600,3.10,2.01,2.84,4.66
2.611,2.55,2.13,3.39,4.75
2.621,2.52,2.09,3.87,5.07
2.631,3.03,2.10,4.13,5.54
2.641,3.62,2.11,3.90,5.72
2.651,3.95,1.98,3.12,5.41
2.661,3.83,1.82,1.93,4.65
2.671,3.54,1.59,0.77,3.96
2.681,3.17,1.22,-0.12,3.40
2.691,2.67,0.75,-0.74,2.87
2.701,2.17,0.23,-1.02,2.41
2.711,1.85,-0.20,-0.94,2.09
2.721,1.69,-0.52,-0.52,1.84
2.732,1.54,-0.85,-0.15,1.77
2.741,1.54,-1.00,-0.07,1.84
2.752,1.51,-0.94,-0.16,1.79
2.762,1.38,-0.98,-0.36,1.73
2.772,1.12,-1.04,-0.58,1.64
2.782,0.81,-1.06,-0.81,1.56
2.792,0.48,-1.14,-0.90,1.53
2.802,0.15,-1.30,-0.76,1.51
2.812,-0.21,-1.35,-0.43,1.43
2.822,-0.30,-1.28,0.02,1.32
2.833,-0.28,-1.14,0.39,1.23
2.842,-0.27,-0.97,0.50,1.13
2.853,-0.16,-0.76,0.38,0.86
2.863,-0.17,-0.57,0.13,0.61
2.873,-0.19,-0.36,-0.14,0.43
2.883,-0.29,-0.07,-0.40,0.50
2.893,-0.37,0.07,-0.60,0.70
2.903,-0.58,0.12,-0.68,0.91
2.913,-0.80,0.16,-0.56,0.99
2.923,-1.07,0.18,-0.23,1.11
2.933,-1.31,0.12,0.31,1.35
2.943,-1.47,0.13,0.80,1.68
2.953,-1.45,0.18,1.21,1.90
2.963,-1.45,0.27,1.46,2.07
2.974,-1.36,0.36,1.52,2.07
2.984,-1.29,0.50,1.41,1.98
2.994,-1.30,0.70,1.12,1.85
3.004,-1.38,0.77,0.71,1.73
3.014,-1.53,0.81,0.29,1.76
3.024,-1.65,0.84,-0.12,1.86
3.034,-1.74,0.74,-0.42,1.94
3.044,-2.05,0.52,-0.49,2.17
3.054,-2.28,0.33,-0.45,2.35
3.064,-2.37,0.11,-0.31,2.40
3.074,-2.44,-0.14,0.01,2.44
3.084,-2.50,-0.33,0.29,2.54
3.095,-2.60,-0.44,0.40,2.67
3.104,-2.77,-0.51,0.42,2.84
3.115,-2.82,-0.55,0.30,2.89
3.125,-2.69,-0.46,0.10,2.73
3.135,-2.40,-0.22,-0.05,2.41
3.145,-2.04,0.03,-0.18,2.04
3.155,-1.82,0.20,-0.23,1.84
3.165,-1.63,0.22,-0.23,1.66
3.175,-1.52,0.16,-0.16,1.54
3.185,-1.52,0.02,-0.05,1.52
3.195,-1.52,-0.08,0.08,1.52
3.205,-1.49,-0.08,0.20,1.51
3.216,-1.41,-0.02,0.33,1.45
3.225,-1.31,0.08,0.41,1.37
3.236,-1.09,0.27,0.39,1.19
3.246,-1.01,0.54,0.33,1.19
3.256,-1.16,0.72,0.24,1.39
3.266,-1.33,0.80,0.12,1.55
3.276,-1.50,0.81,0.05,1.71
3.286,-1.65,0.95,0.05,1.91
3.296,-1.87,1.22,0.07,2.24
3.306,-2.02,1.53,0.12,2.54
3.316,-2.13,1.91,0.21,2.87
3.326,-2.12,2.30,0.38,3.15
3.336,-2.10,2.62,0.49,3.39
3.346,-1.98,2.79,0.64,3.48
3.357,-1.75,2.87,0.64,3.42
3.366,-1.50,3.00,0.41,3.38
3.377,-1.22,3.09,0.11,3.32
3.387,-1.18,3.01,-0.32,3.25
3.397,-1.36,2.75,-0.66,3.14
3.407,-1.52,2.45,-0.74,2.97
3.417,-1.64,2.10,-0.58,2.73
3.427,-1.74,1.69,-0.31,2.45
3.437,-1.75,1.32,-0.00,2.19
3.447,-1.80,0.98,0.25,2.06
3.457,-1.83,0.69,0.39,1.99
3.467,-1.75,0.49,0.51,1.89
3.477,-1.55,0.40,0.68,1.74
3.487,-1.34,0.34,0.80,1.60
3.498,-1.05,0.39,0.75,1.35
3.508,-0.76,0.48,0.53,1.04
3.518,-0.59,0.49,0.28,0.82
3.528,-0.46,0.39,0.09,0.61
3.538,-0.33,0.27,0.02,0.43
3.548,-0.21,0.11,0.10,0.25
3.558,-0.11,-0.02,0.21,0.24
3.568,0.01,-0.14,0.23,0.26
3.578,0.17,-0.17,0.18,0.30
3.588,0.25,-0.17,-0.04,0.30
3.598,0.25,-0.19,-0.36,0.48
3.608,0.13,-0.31,-0.61,0.69
3.619,-0.06,-0.52,-0.73,0.90
3.629,-0.33,-0.75,-0.75,1.11
3.639,-0.56,-0.89,-0.73,1.28
3.649,-0.71,-0.96,-0.65,1.35
3.659,-0.82,-1.03,-0.57,1.43
3.669,-0.91,-1.06,-0.54,1.50
3.679,-0.95,-1.05,-0.54,1.52
3.689,-0.93,-1.08,-0.51,1.51
3.699,-0.94,-1.12,-0.41,1.52
3.709,-0.88,-1.14,-0.29,1.47
3.719,-0.90,-1.13,-0.21,1.46
3.729,-0.98,-1.16,-0.20,1.53
3.740,-0.95,-1.05,-0.33,1.46
3.750,-0.85,-0.91,-0.40,1.31
3.760,-0.71,-0.72,-0.36,1.07
3.770,-0.50,-0.46,-0.28,0.74
3.780,-0.04,-0.23,-0.10,0.26
3.790,0.39,-0.11,0.20,0.45
3.800,0.78,-0.16,0.59,0.99
3.810,1.17,-0.33,1.01,1.58
3.820,1.58,-0.47,1.39,2.16
3.830,1.94,-0.60,1.59,2.58
3.840,2.27,-0.62,1.56,2.82
3.850,2.32,-0.48,1.20,2.66
3.861,2.22,-0.33,0.55,2.31
3.870,2.02,-0.27,-0.15,2.04
3.881,1.91,-0.26,-0.62,2.02
3.890,1.84,-0.30,-0.70,2.00
3.901,1.83,-0.44,-0.42,1.92
3.911,1.84,-0.64,0.06,1.95
3.921,1.91,-0.76,0.36,2.09
3.931,1.98,-0.83,0.43,2.19
3.941,1.90,-0.86,0.23,2.10
3.951,1.67,-0.86,-0.19,1.89
3.961,1.37,-0.85,-0.67,1.75
3.971,1.10,-0.86,-1.09,1.77
3.981,0.91,-0.87,-1.42,1.90
3.991,0.77,-0.91,-1.53,1.94
4.002,0.69,-0.96,-1.50,1.91
4.012,0.70,-0.95,-1.37,1.81
4.022,0.71,-0.95,-1.21,1.70
4.032,0.76,-0.90,-0.96,1.53
4.042,0.92,-0.84,-0.74,1.45
4.052,1.17,-0.76,-0.44,1.46
4.062,1.43,-0.63,-0.18,1.57
4.072,1.79,-0.44,-0.04,1.85
4.082,2.23,-0.19,0.07,2.24
4.092,2.66,0.12,0.14,2.66
4.102,3.02,0.43,0.17,3.05
4.112,3.34,0.81,0.19,3.45
4.122,3.61,1.20,0.30,3.82
4.132,3.57,1.50,0.35,3.89
4.143,3.37,1.63,0.38,3.77
4.153,3.20,1.75,0.50,3.68
4.163,3.13,1.90,0.76,3.74
4.173,3.13,1.87,1.23,3.85
4.183,3.36,1.68,1.78,4.16
4.193,3.59,1.48,2.24,4.49
4.203,3.67,1.17,2.42,4.55
4.213,3.58,0.82,2.18,4.27
4.223,3.21,0.58,1.51,3.60
4.233,2.69,0.44,0.62,2.80
4.243,2.27,0.33,-0.13,2.30
4.253,1.95,0.19,-0.60,2.05
4.264,1.78,0.03,-0.71,1.91
4.274,1.56,-0.21,-0.52,1.66
4.284,1.35,-0.48,-0.22,1.45
4.294,1.23,-0.69,0.15,1.42
4.304,1.17,-0.83,0.52,1.52
4.314,1.05,-0.90,0.77,1.59
4.324,0.92,-0.96,0.85,1.58
4.334,0.73,-0.93,0.68,1.37
4.344,0.54,-0.88,0.40,1.11
4.354,0.40,-0.86,0.11,0.96
4.364,0.24,-0.86,-0.13,0.90
4.374,0.11,-0.91,-0.34,0.97
4.385,-0.08,-1.02,-0.50,1.13
4.395,-0.23,-1.11,-0.58,1.28
4.405,-0.35,-1.17,-0.54,1.34
4.415,-0.45,-1.23,-0.45,1.38
4.425,-0.44,-1.24,-0.32,1.36
4.435,-0.43,-1.18,-0.18,1.26
4.445,-0.49,-1.09,-0.14,1.20
4.455,-0.53,-1.06,-0.13,1.19
4.465,-0.72,-1.04,-0.14,1.27
4.475,-0.88,-1.03,-0.08,1.36
4.485,-0.82,-0.95,0.14,1.26
4.495,-0.80,-0.80,0.29,1.17
4.505,-0.68,-0.61,0.32,0.97
4.515,-0.54,-0.32,0.30,0.69
4.526,-0.44,-0.02,0.18,0.48
4.536,-0.34,0.20,-0.03,0.39
4.546,-0.20,0.46,-0.22,0.55
4.556,-0.08,0.71,-0.44,0.84
4.566,-0.17,0.89,-0.71,1.16
4.576,-0.31,1.04,-0.97,1.46
4.586,-0.47,1.15,-1.22,1.75
4.596,-0.72,1.21,-1.44,2.01
4.606,-0.91,1.13,-1.40,2.02
4.616,-1.07,0.91,-1.07,1.77
4.627,-1.23,0.68,-0.60,1.53
4.636,-1.35,0.51,-0.13,1.44
4.647,-1.55,0.33,0.14,1.59
4.656,-1.71,0.17,0.28,1.74
4.667,-1.81,0.08,0.34,1.84
4.677,-1.78,0.11,0.36,1.82
4.687,-1.70,0.19,0.34,1.75
4.697,-1.49,0.29,0.17,1.53
4.707,-1.17,0.39,0.04,1.23
4.717,-0.84,0.43,0.06,0.95
4.727,-0.52,0.42,0.19,0.69
4.737,-0.26,0.32,0.30,0.51
4.747,-0.13,0.21,0.32,0.40
4.757,-0.21,0.04,0.27,0.35
4.768,-0.42,-0.20,0.19,0.50
4.778,-0.65,-0.38,0.13,0.77
4.788,-0.96,-0.52,0.07,1.09
4.798,-1.29,-0.61,0.01,1.42
4.808,-1.66,-0.64,-0.02,1.78
4.818,-1.96,-0.59,-0.10,2.05
4.828,-2.21,-0.35,-0.21,2.25
4.838,-2.48,0.00,-0.44,2.52
4.848,-2.73,0.63,-0.79,2.91
4.858,-2.75,1.50,-1.06,3.31
4.868,-2.82,2.36,-1.17,3.85
4.878,-2.94,2.96,-1.10,4.32
4.888,-3.01,3.41,-0.67,4.60
4.898,-2.89,3.68,-0.07,4.68
4.909,-2.50,3.76,0.62,4.56
4.919,-1.93,4.02,1.23,4.63
4.929,-1.55,4.28,1.47,4.79
4.939,-1.34,4.36,1.32,4.75
4.949,-1.34,4.27,0.93,4.58
4.959,-1.46,4.01,0.48,4.29
4.969,-1.54,3.59,0.18,3.91
4.979,-1.58,3.14,0.08,3.52
4.989,-1.66,2.57,0.14,3.06
4.999,-1.67,1.94,0.26,2.57
5.010,-1.66,1.39,0.38,2.20
5.019,-1.62,0.96,0.45,1.94
5.030,-1.58,0.54,0.43,1.72
5.039,-1.46,0.23,0.38,1.53
5.050,-1.26,0.17,0.20,1.29
5.060,-1.05,0.11,-0.14,1.07
5.070,-0.80,0.02,-0.48,0.94
5.080,-0.62,-0.05,-0.71,0.95
5.090,-0.52,-0.19,-0.88,1.04
5.100,-0.46,-0.43,-0.88,1.08
5.110,-0.40,-0.66,-0.77,1.09
5.120,-0.41,-0.85,-0.65,1.14
5.130,-0.55,-1.07,-0.56,1.33
5.140,-0.69,-1.29,-0.45,1.54
5.150,-0.81,-1.43,-0.44,1.70
5.160,-0.92,-1.53,-0.54,1.86
5.171,-0.97,-1.60,-0.70,2.00
5.181,-0.98,-1.61,-0.88,2.08
5.191,-0.94,-1.55,-1.00,2.07
5.201,-0.82,-1.46,-1.02,1.96
5.211,-0.68,-1.35,-1.00,1.82
5.221,-0.59,-1.30,-0.97,1.72
5.231,-0.61,-1.30,-0.90,1.69
5.241,-0.72,-1.31,-0.85,1.72
5.251,-0.73,-1.32,-0.68,1.65
5.261,-0.78,-1.35,-0.45,1.62
5.271,-0.78,-1.27,-0.34,1.53
5.281,-0.76,-1.02,-0.37,1.32
5.292,-0.79,-0.84,-0.37,1.21
5.302,-0.87,-0.74,-0.33,1.19
5.312,-0.75,-0.62,-0.28,1.01
5.322,-0.63,-0.40,-0.26,0.79
5.332,-0.51,-0.21,-0.23,0.60
5.342,-0.41,-0.14,-0.14,0.45
5.352,-0.32,-0.12,0.00,0.34
5.362,-0.24,-0.09,0.16,0.30
5.372,0.05,-0.00,0.30,0.31
5.382,0.54,0.09,0.49,0.73
5.393,0.97,0.24,0.67,1.21
5.402,1.15,0.26,0.77,1.41
5.413,1.30,0.18,0.77,1.53
5.423,1.52,0.19,0.79,1.72
5.433,1.74,0.25,0.77,1.92
5.443,1.83,0.18,0.69,1.96
5.453,1.84,-0.01,0.74,1.99
5.463,1.86,-0.21,0.95,2.10
5.473,1.85,-0.42,1.21,2.25
5.483,1.86,-0.60,1.40,2.40
5.493,1.81,-0.71,1.38,2.38
5.503,1.72,-0.79,1.04,2.16
5.513,1.65,-0.88,0.54,1.95
5.523,1.66,-0.97,0.07,1.92
5.534,1.64,-1.10,-0.38,2.01
5.543,1.67,-1.19,-0.69,2.17
5.554,1.73,-1.29,-0.93,2.35
5.564,1.66,-1.40,-1.05,2.41
5.574,1.51,-1.61,-0.97,2.41
5.584,1.40,-1.84,-0.73,2.42
5.594,1.39,-1.97,-0.37,2.44
5.604,1.47,-2.00,0.00,2.49
5.614,1.52,-1.87,0.30,2.43
5.624,1.66,-1.59,0.38,2.33
5.634,1.90,-1.13,0.39,2.25
5.644,2.25,-0.46,0.29,2.31
5.655,2.69,0.26,0.15,2.71
5.664,3.20,0.92,0.19,3.33
5.675,3.78,1.64,0.48,4.15
5.685,4.23,2.13,1.03,4.85
5.695,4.55,2.25,1.69,5.35
5.705,4.60,2.31,2.12,5.57
5.715,4.44,2.41,2.22,5.52
5.725,3.90,2.62,2.16,5.17
5.735,3.19,2.72,2.04,4.66
5.745,2.63,2.58,2.00,4.19
5.755,2.34,2.37,1.99,3.88
5.765,2.21,2.12,1.88,3.59
5.776,2.05,1.78,1.79,3.25
5.785,2.00,1.41,1.69,2.97
5.796,1.90,1.08,1.56,2.68
5.806,1.76,0.78,1.44,2.41
5.816,1.60,0.46,1.12,2.01
5.826,1.30,0.06,0.57,1.42
5.836,1.17,-0.01,0.29,1.21
5.846,1.25,0.11,0.06,1.25
5.856,1.20,-0.14,-0.23,1.23
5.866,1.02,-0.47,-0.25,1.15
5.876,0.80,-0.58,0.04,0.99
5.886,0.64,-0.55,0.31,0.89
5.896,0.54,-0.74,0.20,0.94
5.906,0.47,-0.88,-0.00,0.99
5.917,0.44,-0.90,-0.09,1.01
5.926,0.33,-0.97,-0.13,1.03
5.937,0.15,-1.07,-0.11,1.09
5.947,-0.02,-1.22,-0.07,1.23
5.957,-0.14,-1.36,0.05,1.37
5.967,-0.33,-1.47,0.24,1.53
5.977,-0.47,-1.55,0.32,1.65
5.987,-0.64,-1.63,0.34,1.78
5.997,-0.75,-1.65,0.34,1.84
6.007,-0.71,-1.53,0.33,1.71
6.017,-0.98,-1.47,0.10,1.77
6.027,-1.05,-1.49,0.07,1.82
6.038,-1.01,-1.38,0.20,1.72
6.048,-0.86,-1.21,0.36,1.53
6.058,-0.69,-1.01,0.52,1.33
6.068,-0.55,-0.68,0.50,1.01
6.078,-0.44,-0.41,0.30,0.68
6.088,-0.45,-0.18,0.02,0.48
6.098,-0.47,0.09,-0.28,0.55
6.108,-0.47,0.34,-0.63,0.86
6.118,-0.52,0.68,-0.96,1.29
6.128,-0.46,0.98,-1.04,1.50
6.138,-0.29,1.18,-0.88,1.50
6.148,-0.13,1.25,-0.73,1.45
6.159,-0.03,1.23,-0.67,1.40
6.169,-0.23,1.05,-0.58,1.22
6.179,-0.60,0.76,-0.51,1.09
6.189,-1.09,0.40,-0.36,1.22
6.199,-1.67,0.00,-0.15,1.67
6.209,-2.21,-0.35,0.03,2.24
6.219,-2.60,-0.59,0.10,2.67
6.229,-2.83,-0.67,0.11,2.91
6.239,-2.86,-0.55,0.04,2.91
6.249,-2.69,-0.39,-0.04,2.72
6.259,-2.29,-0.25,-0.14,2.30
6.269,-1.71,-0.04,-0.17,1.71
6.279,-1.26,0.16,-0.17,1.28
6.289,-1.01,0.21,-0.17,1.05
6.300,-0.81,0.19,-0.09,0.83
6.309,-0.69,0.20,0.10,0.72
6.320,-0.68,0.16,0.23,0.73
6.330,-0.80,0.08,0.28,0.85
6.340,-0.88,0.07,0.26,0.92
6.350,-0.90,0.16,0.17,0.93
6.360,-0.94,0.26,0.11,0.99
6.370,-1.01,0.36,0.17,1.08
6.380,-1.20,0.54,0.26,1.34
6.390,-1.43,0.62,0.35,1.60
6.401,-1.69,0.75,0.37,1.88
6.410,-1.88,1.07,0.35,2.19
6.421,-1.89,1.57,0.24,2.47
6.431,-1.77,2.14,0.06,2.78
6.441,-1.51,2.62,-0.14,3.03
6.451,-1.37,2.94,-0.26,3.25
6.461,-1.19,3.11,-0.39,3.35
6.471,-0.89,3.11,-0.61,3.29
6.481,-0.68,3.15,-0.75,3.31
6.491,-0.57,3.28,-0.90,3.45
6.501,-0.62,3.21,-1.11,3.45
6.511,-0.80,3.10,-1.15,3.40
6.521,-1.03,2.86,-0.98,3.20
6.531,-1.28,2.51,-0.74,2.91
6.542,-1.59,2.10,-0.50,2.68
6.552,-1.87,1.62,-0.36,2.50
6.562,-2.19,1.10,-0.24,2.46
6.572,-2.42,0.78,-0.07,2.54
6.582,-2.43,0.65,0.13,2.52
6.592,-2.30,0.61,0.23,2.39
6.602,-1.97,0.55,0.18,2.06
6.612,-1.68,0.52,0.07,1.76
6.622,-1.44,0.42,0.03,1.51
6.632,-1.33,0.22,0.14,1.35
6.642,-1.29,0.01,0.40,1.35
6.652,-1.32,-0.20,0.76,1.54
6.662,-1.40,-0.37,1.10,1.82
6.672,-1.45,-0.44,1.15,1.91
6.683,-1.35,-0.51,0.99,1.75
6.693,-1.26,-0.48,0.70,1.52
6.703,-1.18,-0.50,0.33,1.32
6.713,-1.16,-0.55,0.01,1.28
6.723,-1.16,-0.72,-0.23,1.38
6.733,-1.23,-0.93,-0.27,1.57
6.743,-1.26,-1.19,-0.21,1.75
6.753,-1.26,-1.41,-0.14,1.89
6.763,-1.24,-1.59,-0.06,2.02
6.773,-1.18,-1.74,-0.00,2.10
6.783,-1.20,-1.83,-0.00,2.19
6.793,-1.28,-1.85,-0.01,2.25
6.804,-1.32,-1.86,-0.03,2.27
6.814,-1.28,-1.83,-0.02,2.23
6.824,-1.18,-1.71,0.12,2.08
6.834,-1.08,-1.61,0.31,1.96
6.844,-1.01,-1.46,0.48,1.84
6.854,-0.90,-1.27,0.73,1.72
6.864,-0.68,-1.11,1.05,1.67
6.874,-0.41,-0.90,1.28,1.62
6.884,-0.29,-0.63,1.22,1.40
6.894,-0.26,-0.34,0.93,1.03
6.904,-0.27,-0.14,0.67,0.73
6.914,-0.28,0.11,0.45,0.54
6.924,-0.16,0.38,0.30,0.51
6.934,0.09,0.53,0.29,0.61
6.945,0.39,0.65,0.29,0.81
6.955,0.65,0.74,0.30,1.03
6.965,1.03,0.82,0.39,1.37
6.975,1.41,0.91,0.44,1.73
6.985,1.71,0.93,0.48,2.00
6.996,1.90,0.80,0.50,2.12
7.005,1.99,0.60,0.49,2.13
7.015,1.94,0.36,0.51,2.04
7.025,1.98,0.14,0.55,2.06
7.035,1.95,-0.07,0.53,2.02
7.046,1.90,-0.29,0.36,1.95
7.055,1.86,-0.46,0.13,1.92
7.066,1.78,-0.61,-0.18,1.89
7.076,1.69,-0.78,-0.51,1.93
7.086,1.52,-0.95,-0.81,1.97
7.096,1.41,-1.11,-1.03,2.07
7.106,1.33,-1.16,-1.11,2.09
7.116,1.32,-1.15,-1.15,2.09
7.126,1.33,-1.15,-1.11,2.08
7.136,1.42,-1.11,-0.99,2.06
7.146,1.51,-1.02,-0.86,2.01
7.156,1.59,-0.92,-0.75,1.98
7.166,1.71,-0.79,-0.63,1.99
7.176,1.84,-0.58,-0.55,2.01
7.187,2.00,-0.30,-0.54,2.09
7.196,2.27,0.00,-0.47,2.31
7.207,2.49,0.36,-0.29,2.54
7.217,2.78,0.67,-0.02,2.86
7.227,2.94,0.89,0.24,3.09
7.237,3.01,1.03,0.51,3.22
7.247,2.96,1.10,0.72,3.24
7.257,2.99,1.20,0.84,3.33
7.267,3.01,1.49,0.83,3.46
7.277,2.95,1.81,0.78,3.55
7.287,2.84,2.11,0.81,3.63
7.297,2.94,2.30,0.88,3.83
7.308,3.14,2.34,1.00,4.04
7.317,3.27,2.14,1.12,4.06
7.328,3.30,1.86,1.15,3.96
7.338,3.12,1.56,1.07,3.65
7.348,2.80,1.30,0.80,3.19
7.358,2.44,1.07,0.44,2.70
7.368,1.99,0.84,0.10,2.17
7.378,1.69,0.69,-0.16,1.83
7.388,1.50,0.55,-0.26,1.62
7.398,1.34,0.38,-0.25,1.41
7.408,1.23,0.21,-0.22,1.27
7.418,1.07,0.07,-0.24,1.10
7.429,0.92,-0.11,-0.28,0.97
7.438,0.77,-0.20,-0.37,0.88
7.449,0.54,-0.32,-0.43,0.76
7.459,0.32,-0.44,-0.41,0.68
7.469,0.16,-0.54,-0.32,0.65
7.479,-0.01,-0.69,-0.29,0.75
7.489,-0.07,-0.82,-0.22,0.85
7.499,-0.08,-0.93,-0.09,0.94
7.509,-0.15,-1.09,0.06,1.10
7.519,-0.21,-1.20,0.21,1.24
7.529,-0.17,-1.31,0.28,1.35
7.539,-0.09,-1.38,0.24,1.40
7.549,-0.00,-1.43,0.15,1.44
7.559,0.06,-1.45,0.08,1.46
7.570,0.09,-1.46,0.00,1.46
7.580,0.19,-1.43,-0.11,1.45
7.590,0.36,-1.30,-0.18,1.36
7.600,0.57,-1.10,-0.26,1.26
7.610,0.75,-0.88,-0.35,1.21
7.620,0.91,-0.68,-0.35,1.18
7.630,0.98,-0.51,-0.30,1.15
7.640,0.99,-0.30,-0.32,1.08
7.650,0.91,-0.20,-0.39,1.01
7.660,0.92,-0.08,-0.55,1.07
7.670,0.89,0.11,-0.69,1.14
7.680,0.70,0.27,-0.86,1.14
7.691,0.42,0.41,-1.00,1.16
7.700,0.17,0.57,-1.17,1.31
7.711,-0.10,0.72,-1.23,1.43
7.721,-0.38,0.77,-1.19,1.47
7.731,-0.68,0.72,-1.09,1.47
7.741,-0.92,0.63,-0.84,1.40
7.751,-1.20,0.46,-0.52,1.39
7.761,-1.44,0.22,-0.16,1.47
7.771,-1.67,-0.01,0.17,1.68
7.781,-1.91,-0.26,0.40,1.97
7.791,-2.15,-0.47,0.55,2.27
7.801,-2.31,-0.62,0.63,2.47
7.812,-2.41,-0.64,0.64,2.57
7.821,-2.53,-0.77,0.70,2.74
7.832,-2.52,-0.94,0.80,2.81
7.842,-2.34,-1.03,0.89,2.71
7.852,-2.12,-1.06,0.94,2.55
7.862,-1.92,-1.08,0.89,2.38
7.872,-1.77,-1.04,0.77,2.20
7.882,-1.60,-0.98,0.61,1.97
7.892,-1.35,-0.88,0.45,1.68
7.902,-1.26,-0.76,0.27,1.50
7.912,-1.18,-0.61,0.09,1.33
7.922,-1.08,-0.39,-0.06,1.15
7.932,-1.05,-0.15,-0.25,1.09
7.942,-1.01,0.14,-0.50,1.14
7.953,-1.07,0.50,-0.75,1.39
7.963,-1.20,0.92,-1.04,1.83
7.973,-1.23,1.39,-1.20,2.21
7.983,-1.18,1.78,-1.18,2.44
7.993,-1.11,1.99,-0.85,2.43
8.003,-1.00,2.08,-0.24,2.32
8.013,-0.89,2.13,0.46,2.35
8.023,-0.85,2.15,1.07,2.55
8.033,-0.78,2.15,1.50,2.73
8.043,-0.74,2.27,1.68,2.92
8.053,-0.71,2.49,1.61,3.04
8.063,-0.76,2.69,1.32,3.09
8.074,-0.83,2.81,0.96,3.09
8.084,-0.87,2.81,0.65,3.01
8.094,-0.97,2.60,0.44,2.81
8.104,-1.08,2.28,0.38,2.55
8.114,-1.18,1.88,0.41,2.25
8.124,-1.30,1.49,0.40,2.02
8.134,-1.45,1.22,0.30,1.92
8.144,-1.60,1.07,0.16,1.94
8.154,-1.69,1.00,0.06,1.96
8.164,-1.72,0.95,0.08,1.97
8.174,-1.69,0.82,0.17,1.89
8.184,-1.61,0.58,0.29,1.73
8.195,-1.53,0.33,0.37,1.61
8.204,-1.45,0.12,0.42,1.51
8.215,-1.45,-0.09,0.45,1.52
8.225,-1.49,-0.30,0.49,1.60
8.235,-1.57,-0.53,0.59,1.76
8.245,-1.67,-0.75,0.71,1.96
8.255,-1.69,-0.88,0.74,2.04
8.265,-1.65,-0.89,0.75,2.02
8.275,-1.60,-0.85,0.64,1.92
8.285,-1.42,-0.75,0.40,1.66
8.295,-1.30,-0.57,0.14,1.43
8.305,-1.23,-0.52,-0.04,1.33
8.315,-1.17,-0.54,-0.18,1.30
8.325,-1.15,-0.59,-0.28,1.32
8.336,-1.22,-0.64,-0.31,1.41
8.346,-1.28,-0.66,-0.30,1.47
8.356,-1.29,-0.59,-0.32,1.46
8.366,-1.30,-0.52,-0.37,1.45
8.376,-1.37,-0.41,-0.40,1.48
8.386,-1.33,-0.28,-0.43,1.43
8.396,-1.16,-0.05,-0.51,1.27
8.406,-1.03,0.20,-0.57,1.19
8.416,-1.05,0.22,-0.55,1.21
8.426,-1.11,0.09,-0.53,1.23
8.436,-1.21,-0.09,-0.46,1.30
8.446,-1.19,-0.23,-0.27,1.24
8.457,-1.13,-0.25,-0.07,1.16
8.466,-1.12,-0.18,0.14,1.14
8.477,-1.02,-0.07,0.27,1.05
8.487,-0.76,0.04,0.33,0.83
8.497,-0.41,0.19,0.34,0.56
8.507,-0.03,0.35,0.36,0.51
8.517,0.43,0.45,0.45,0.77
8.527,0.87,0.51,0.51,1.14
8.537,1.27,0.44,0.53,1.44
8.547,1.53,0.23,0.57,1.65
8.557,1.70,0.03,0.60,1.80
8.567,1.74,-0.18,0.65,1.86
8.578,1.63,-0.50,0.73,1.85
8.588,1.44,-0.83,0.81,1.85
8.598,1.20,-1.05,0.87,1.82
8.608,1.02,-1.16,0.86,1.77
8.618,1.01,-1.18,0.78,1.74
8.628,1.21,-1.16,0.61,1.78
8.638,1.45,-1.05,0.34,1.82
8.648,1.63,-0.94,-0.06,1.88
8.658,1.77,-0.88,-0.57,2.06
8.668,1.89,-0.84,-1.03,2.31
8.678,1.99,-0.88,-1.33,2.55
8.688,2.01,-1.05,-1.35,2.64
8.698,1.98,-1.22,-1.20,2.62
8.708,1.88,-1.39,-0.97,2.53
8.719,1.77,-1.52,-0.76,2.46
8.729,1.63,-1.56,-0.65,2.35
8.739,1.39,-1.42,-0.69,2.11
8.749,1.19,-1.23,-1.06,2.01
8.759,1.03,-0.88,-1.62,2.11
8.769,0.99,-0.39,-2.05,2.31
8.779,1.04,0.02,-2.06,2.31
8.789,1.24,0.25,-1.63,2.07
8.799,1.52,0.41,-0.94,1.84
8.809,1.80,0.38,-0.26,1.86
8.819,2.08,0.37,0.19,2.12
8.829,2.29,0.56,0.54,2.42
8.840,2.55,0.80,0.92,2.82
8.850,2.86,1.08,1.48,3.39
8.860,3.14,1.28,1.97,3.92
8.870,3.37,1.39,2.27,4.29
8.880,3.57,1.43,2.24,4.46
8.890,3.78,1.40,1.92,4.47
8.900,3.81,1.30,1.50,4.29
8.910,3.77,1.22,1.03,4.10
8.920,3.63,1.21,0.62,3.87
8.930,3.41,1.12,0.28,3.60
8.940,2.99,0.91,-0.05,3.13
8.950,2.50,0.75,-0.34,2.63
8.961,1.99,0.67,-0.56,2.17
8.970,1.58,0.52,-0.77,1.83
8.981,1.21,0.43,-0.89,1.56
8.991,0.98,0.37,-0.76,1.29
9.001,0.91,0.26,-0.42,1.04
9.011,0.88,0.15,0.02,0.89
9.021,0.87,-0.04,0.35,0.94
9.031,0.84,-0.16,0.50,1.00
9.041,0.72,-0.36,0.49,0.95
9.051,0.72,-0.56,0.37,0.98
9.061,0.68,-0.67,0.30,1.00
9.071,0.62,-0.77,0.18,1.00
9.082,0.60,-0.81,0.05,1.01
9.091,0.54,-0.82,-0.06,0.99
9.102,0.53,-0.85,-0.15,1.01
9.112,0.54,-0.74,-0.28,0.96
9.122,0.52,-0.63,-0.46,0.94
9.132,0.43,-0.54,-0.60,0.91
9.142,0.40,-0.57,-0.64,0.94
9.152,0.34,-0.54,-0.51,0.82
9.162,0.29,-0.53,-0.34,0.69
9.172,0.16,-0.49,-0.20,0.55
9.182,-0.03,-0.35,-0.14,0.38
9.192,-0.24,-0.15,-0.09,0.30
9.202,-0.42,0.10,0.06,0.43
9.212,-0.48,0.42,0.26,0.69
9.223,-0.36,0.79,0.42,0.97
9.233,-0.33,1.14,0.50,1.29
9.243,-0.43,1.35,0.44,1.48
9.253,-0.40,1.44,0.42,1.56
9.263,-0.32,1.44,0.50,1.56
9.273,-0.31,1.25,0.49,1.38
9.283,-0.32,0.87,0.44,1.03
9.293,-0.50,0.54,0.31,0.80
9.303,-0.65,0.23,0.03,0.69
9.313,-0.75,0.05,-0.38,0.85
9.323,-0.88,-0.08,-0.76,1.17
9.333,-1.00,-0.17,-1.06,1.46
9.344,-1.08,-0.26,-1.28,1.70
9.354,-1.11,-0.42,-1.30,1.77
9.364,-1.16,-0.54,-1.11,1.70
9.374,-1.08,-0.63,-0.79,1.48
9.384,-0.97,-0.79,-0.43,1.32
9.394,-0.90,-0.98,-0.12,1.34
9.404,-0.88,-1.10,0.10,1.41
9.414,-0.88,-1.21,0.17,1.50
9.424,-0.88,-1.27,0.10,1.55
9.434,-0.93,-1.27,-0.04,1.57
9.444,-0.94,-1.31,-0.13,1.62
9.454,-0.99,-1.30,-0.16,1.64
9.465,-1.04,-1.25,-0.23,1.64
9.474,-1.06,-1.26,-0.23,1.66
9.485,-1.07,-1.24,-0.17,1.65
9.495,-1.14,-1.19,-0.10,1.65
9.505,-1.25,-1.14,-0.01,1.69
9.515,-1.41,-1.04,0.09,1.75
9.525,-1.67,-0.88,0.15,1.89
9.535,-1.94,-0.60,0.13,2.03
9.545,-2.13,-0.20,0.15,2.15
9.555,-2.32,0.20,0.23,2.34
9.565,-2.48,0.45,0.44,2.56
9.575,-2.28,0.85,0.68,2.53
9.585,-1.85,1.47,0.73,2.47
9.595,-1.58,1.77,0.69,2.47
9.605,-1.49,1.84,0.67,2.46
9.615,-1.37,2.17,0.56,2.62
9.626,-1.20,2.68,0.35,2.96
9.636,-1.10,3.16,0.03,3.35
9.646,-1.05,3.46,-0.30,3.63
9.656,-0.99,3.63,-0.65,3.82
9.666,-1.15,3.51,-0.93,3.81
9.676,-1.43,2.93,-1.05,3.42
9.686,-1.69,2.27,-0.83,2.95
9.696,-1.86,1.69,-0.36,2.54
9.706,-1.80,1.23,0.17,2.18
9.716,-1.54,0.88,0.61,1.88
9.727,-1.47,0.66,0.87,1.82
9.736,-1.53,0.30,0.87,1.79
9.747,-1.67,-0.02,0.68,1.80
9.757,-1.85,-0.22,0.36,1.90
9.767,-1.98,-0.39,0.18,2.02
9.777,-1.99,-0.46,0.13,2.04
9.787,-2.00,-0.47,0.15,2.06
9.797,-1.95,-0.53,0.20,2.04
9.807,-1.73,-0.60,0.26,1.85
9.817,-1.54,-0.62,0.28,1.68
9.827,-1.45,-0.63,0.22,1.60
9.837,-1.42,-0.66,0.08,1.57
9.847,-1.48,-0.63,-0.15,1.62
9.857,-1.48,-0.55,-0.38,1.62
9.868,-1.42,-0.32,-0.50,1.54
9.878,-1.35,-0.22,-0.59,1.49
9.888,-1.41,-0.20,-0.61,1.55
9.898,-1.51,-0.20,-0.53,1.61
9.908,-1.46,-0.28,-0.38,1.54
9.918,-1.33,-0.30,-0.18,1.37
9.928,-1.20,-0.36,0.17,1.26
9.938,-1.12,-0.39,0.49,1.29
9.948,-1.09,-0.36,0.70,1.34
9.958,-1.10,-0.32,0.57,1.28
9.968,-1.22,-0.25,0.32,1.29
9.978,-1.43,-0.18,-0.09,1.45
9.989,-1.56,-0.20,-0.51,1.65
9.999,-1.57,-0.09,-0.63,1.69
10.009,-1.38,0.06,-0.52,1.48
10.019,-1.08,0.15,-0.22,1.11
10.029,-0.74,0.20,0.19,0.79
10.039,-0.36,0.29,0.54,0.71
10.049,0.02,0.37,0.74,0.83
10.059,0.39,0.38,0.79,0.95
10.069,0.81,0.38,0.74,1.16
10.079,1.13,0.46,0.58,1.35
10.089,1.35,0.44,0.33,1.45
10.099,1.39,0.31,0.15,1.43
10.110,1.40,0.16,0.17,1.42
10.119,1.47,-0.02,0.46,1.55
10.130,1.51,-0.21,0.80,1.72
10.140,1.49,-0.41,1.04,1.87
10.150,1.47,-0.61,1.22,2.00
10.160,1.51,-0.75,1.33,2.15
10.170,1.57,-0.79,1.37,2.23
10.180,1.67,-0.74,1.17,2.17
10.190,1.70,-0.70,0.75,1.99
10.200,1.72,-0.71,0.26,1.88
10.210,1.70,-0.69,-0.23,1.85
10.220,1.67,-0.76,-0.65,1.95
10.231,1.64,-0.94,-0.96,2.12
10.240,1.50,-1.12,-1.13,2.18
10.251,1.33,-1.34,-1.17,2.22
10.261,1.21,-1.50,-1.14,2.24
10.271,1.10,-1.59,-1.05,2.20
10.281,1.10,-1.65,-1.04,2.24
10.291,1.17,-1.59,-1.09,2.26
10.301,1.31,-1.44,-1.13,2.25
10.311,1.45,-1.18,-1.07,2.15
10.321,1.67,-0.83,-0.96,2.09
10.331,2.12,-0.40,-0.88,2.33
10.341,2.82,0.13,-0.81,2.94
10.351,3.42,0.63,-0.94,3.60
10.361,3.66,0.99,-1.15,3.96
10.372,3.58,1.16,-1.15,3.94
10.382,3.43,1.24,-0.96,3.77
10.392,3.12,1.24,-0.61,3.41
10.402,2.89,1.09,-0.07,3.09
10.412,2.84,0.95,0.73,3.08
10.422,2.96,0.90,1.64,3.50
10.432,3.22,0.81,2.40,4.10
10.442,3.43,0.61,3.09,4.66
10.452,3.35,0.37,3.45,4.82
10.462,3.41,0.05,2.95,4.50
10.472,3.03,-0.05,2.01,3.64
10.482,2.50,-0.10,0.84,2.64
10.493,2.17,-0.23,-0.12,2.18
10.503,1.85,-0.32,-0.75,2.02
10.513,1.50,-0.29,-1.07,1.86
10.523,1.28,-0.41,-1.09,1.73
10.533,1.24,-0.57,-0.87,1.62
10.543,1.35,-0.62,-0.53,1.58
10.553,1.40,-0.61,-0.18,1.54
10.563,1.31,-0.66,0.03,1.46
10.573,1.13,-0.67,-0.02,1.31
10.583,0.90,-0.61,-0.26,1.12
10.593,0.74,-0.52,-0.47,1.02
10.603,0.63,-0.39,-0.57,0.93
10.614,0.49,-0.37,-0.56,0.83
10.623,0.38,-0.40,-0.44,0.71
10.634,0.23,-0.54,-0.22,0.63
10.644,0.23,-0.78,0.10,0.82
10.654,0.30,-0.90,0.42,1.04
10.664,0.28,-0.94,0.59,1.14
10.674,0.28,-0.82,0.45,0.98
10.684,0.38,-0.68,0.32,0.84
10.694,0.40,-0.52,0.22,0.70
10.704,0.33,-0.37,0.07,0.50
10.714,0.30,-0.26,-0.14,0.42
10.724,0.23,-0.10,-0.31,0.40
10.735,0.21,0.06,-0.37,0.43
10.744,0.22,0.18,-0.24,0.37
10.755,0.14,0.21,-0.05,0.26
10.765,-0.02,0.22,0.04,0.22
10.775,-0.10,0.28,0.12,0.32
10.785,-0.11,0.34,0.26,0.45
10.795,-0.17,0.38,0.27,0.50
10.805,-0.22,0.38,0.08,0.44
10.815,-0.35,0.40,-0.09,0.53
10.825,-0.37,0.39,-0.27,0.60
10.835,-0.34,0.39,-0.50,0.72
10.845,-0.30,0.43,-0.68,0.86
10.855,-0.37,0.43,-0.84,1.02
10.865,-0.58,0.29,-0.87,1.09
10.876,-0.86,0.12,-0.87,1.23
10.886,-1.15,-0.09,-0.68,1.34
10.896,-1.43,-0.30,-0.39,1.51
10.906,-1.59,-0.45,-0.07,1.66
10.916,-1.69,-0.58,0.22,1.80
10.926,-1.75,-0.62,0.44,1.90
10.936,-1.75,-0.62,0.56,1.94
10.946,-1.64,-0.57,0.58,1.83
10.956,-1.44,-0.40,0.47,1.57
10.966,-1.22,-0.20,0.21,1.25
10.976,-1.03,0.04,-0.14,1.04
10.986,-0.81,0.19,-0.42,0.93
10.997,-0.61,0.26,-0.60,0.89
11.006,-0.41,0.34,-0.61,0.81
11.017,-0.26,0.40,-0.52,0.71
11.027,-0.16,0.40,-0.38,0.57
11.037,-0.20,0.31,-0.20,0.42
11.047,-0.31,0.24,-0.03,0.39
11.057,-0.43,0.21,0.06,0.49
11.067,-0.53,0.32,0.09,0.63
11.077,-0.60,0.48,0.18,0.79
11.087,-0.66,0.66,0.18,0.96
11.097,-0.83,0.83,0.27,1.20
11.107,-1.06,0.94,0.40,1.47
11.118,-1.13,1.22,0.60,1.77
11.127,-0.97,1.60,0.89,2.07
11.138,-1.02,1.84,1.03,2.34
11.148,-1.16,1.92,0.97,2.45
11.158,-1.32,2.00,0.82,2.53
11.168,-1.47,2.01,0.68,2.59
11.178,-1.68,1.88,0.65,2.60
11.188,-1.81,1.71,0.70,2.58
11.198,-1.83,1.45,0.61,2.41
11.208,-1.77,1.22,0.48,2.20
11.218,-1.77,1.13,0.47,2.15
11.228,-1.80,1.07,0.40,2.13
11.239,-1.94,0.95,0.17,2.16
11.248,-2.09,0.81,0.02,2.25
11.258,-2.19,0.71,0.08,2.31
11.269,-2.26,0.49,0.24,2.32
11.279,-2.31,0.26,0.43,2.36
11.289,-2.40,0.13,0.60,2.48
11.299,-2.37,-0.02,0.75,2.49
11.309,-2.30,-0.05,0.78,2.43
11.319,-2.27,-0.07,0.63,2.36
11.329,-2.21,0.02,0.33,2.23
11.339,-2.00,0.18,0.18,2.01
11.349,-1.90,-0.17,0.20,1.91
11.359,-2.40,-1.34,0.08,2.75
11.369,-1.28,0.77,0.48,1.57
11.380,-0.66,1.01,0.45,1.29
11.390,-1.22,-0.58,0.40,1.41
11.400,-1.54,-0.81,0.52,1.82
11.410,-1.14,-0.26,0.67,1.35
11.420,-0.90,-0.21,0.53,1.07
11.430,-1.13,-0.43,0.24,1.24
11.440,-1.23,-0.53,-0.06,1.34
11.450,-1.12,-0.39,-0.22,1.21
11.461,-1.04,-0.32,-0.30,1.13
11.470,-1.03,-0.29,-0.39,1.14
11.480,-0.96,-0.31,-0.39,1.08
11.490,-1.00,-0.31,-0.33,1.10
11.501,-1.13,-0.31,-0.27,1.20
11.510,-1.25,-0.36,-0.11,1.31
11.521,-1.36,-0.37,0.10,1.41
11.530,-1.31,-0.36,0.06,1.36
11.541,-1.41,-0.49,-0.18,1.51
11.551,-1.38,-0.59,-0.31,1.53
11.561,-1.18,-0.32,-0.39,1.28
11.571,-1.17,-0.32,-0.61,1.36
11.581,-1.12,-0.42,-0.68,1.38
11.591,-0.99,-0.29,-0.65,1.22
11.601,-1.04,-0.40,-0.45,1.20
11.611,-0.87,-0.34,0.07,0.94
11.621,-0.41,-0.12,0.65,0.78
11.631,0.11,-0.02,1.11,1.12
11.642,0.58,0.09,1.38,1.50
11.651,0.98,0.18,1.43,1.74
11.662,1.41,0.21,1.44,2.02
11.672,1.90,0.23,1.51,2.43
11.682,2.33,0.25,1.52,2.80
11.692,2.53,0.19,1.41,2.91
11.702,2.59,0.05,1.24,2.87
11.712,2.51,-0.13,0.94,2.68
11.722,2.35,-0.33,0.60,2.45
11.732,2.05,-0.52,0.30,2.13
11.742,1.78,-0.70,0.05,1.91
11.752,1.59,-0.92,-0.18,1.84
11.763,1.47,-1.10,-0.42,1.88
11.772,1.39,-1.27,-0.67,2.00
11.783,1.40,-1.41,-0.87,2.17
11.793,1.38,-1.47,-1.13,2.31
11.803,1.33,-1.57,-1.43,2.51
11.813,1.32,-1.66,-1.66,2.69
11.823,1.36,-1.59,-1.66,2.67
11.833,1.38,-1.45,-1.57,2.55
11.843,1.36,-1.37,-1.59,2.50
11.853,1.32,-1.21,-1.58,2.39
11.863,1.34,-1.04,-1.49,2.26
11.873,1.42,-0.77,-1.25,2.05
11.883,1.69,-0.33,-0.73,1.87
11.893,2.02,0.18,-0.02,2.03
11.904,2.52,0.85,0.59,2.72
11.914,3.05,1.48,1.00,3.54
11.924,3.47,1.86,1.24,4.13
11.934,3.88,2.15,1.41,4.65
11.944,4.16,2.28,1.51,4.98
11.954,4.26,2.26,1.48,5.05
11.964,4.20,2.19,1.38,4.94
11.974,4.07,1.95,1.21,4.67
11.984,3.84,1.61,1.01,4.28
11.994,3.48,1.30,0.82,3.81
12.004,3.11,0.88,0.67,3.30
12.014,2.88,0.40,0.66,2.98
12.025,2.74,0.05,0.69,2.83
12.035,2.53,-0.30,0.63,2.62
12.045,2.21,-0.65,0.47,2.35
12.055,1.93,-0.86,0.28,2.13
12.065,1.56,-1.07,0.14,1.90
12.075,1.25,-1.30,-0.06,1.81
12.085,1.00,-1.35,-0.32,1.71
12.095,0.75,-1.36,-0.54,1.65
12.105,0.61,-1.46,-0.73,1.74
12.115,0.41,-1.49,-0.87,1.77
12.125,0.29,-1.51,-0.87,1.77
12.135,0.16,-1.52,-0.77,1.72
12.146,0.12,-1.48,-0.62,1.60
12.155,0.13,-1.53,-0.39,1.58
12.166,0.05,-1.55,-0.13,1.56
12.176,-0.01,-1.54,0.04,1.54
12.186,0.04,-1.50,0.15,1.51
12.196,0.12,-1.34,0.18,1.35
12.206,0.08,-1.22,0.14,1.23
12.216,0.02,-1.20,0.03,1.20
12.226,-0.10,-1.15,-0.08,1.16
12.236,-0.14,-1.08,-0.15,1.10
12.246,-0.02,-0.89,-0.15,0.90
12.256,0.14,-0.65,-0.04,0.66
12.267,0.37,-0.41,-0.06,0.55
12.276,0.40,-0.24,-0.06,0.47
12.287,0.40,-0.16,0.03,0.43
12.297,0.54,-0.03,0.07,0.55
12.307,0.54,0.00,0.04,0.55
12.317,0.43,-0.05,-0.04,0.44
12.327,0.13,-0.19,-0.17,0.29
12.337,-0.31,-0.40,-0.30,0.59
12.347,-0.78,-0.56,-0.17,0.98
12.357,-1.06,-0.56,0.11,1.21
12.367,-1.13,-0.41,0.42,1.27
12.377,-1.06,-0.19,0.59,1.23
12.387,-0.86,-0.02,0.58,1.03
12.397,-0.50,0.16,0.49,0.72
12.408,-0.02,0.47,0.23,0.52
12.418,0.51,0.69,-0.26,0.90
12.428,0.76,0.78,-0.78,1.34
12.438,0.80,0.78,-1.03,1.52
12.448,0.82,0.66,-0.92,1.40
12.458,0.51,0.43,-0.68,0.95
12.468,0.06,0.18,-0.36,0.41
12.478,-0.28,-0.04,0.10,0.30
12.488,-0.37,-0.15,0.50,0.64
12.498,-0.40,-0.20,0.76,0.89
12.508,-0.26,-0.20,0.77,0.83
12.518,0.07,-0.02,0.49,0.50
12.529,0.35,0.20,0.06,0.41
12.538,0.52,0.35,-0.41,0.75
12.549,0.56,0.43,-0.86,1.11
12.559,0.51,0.41,-1.18,1.35
12.569,0.33,0.38,-1.15,1.26
12.579,0.05,0.21,-0.94,0.96
12.589,-0.33,-0.02,-0.68,0.76
12.599,-0.59,-0.18,-0.42,0.74
12.609,-0.65,-0.19,-0.11,0.68
12.619,-0.67,-0.08,0.12,0.68
12.629,-0.54,0.03,0.17,0.57
12.639,-0.60,0.34,0.07,0.69
12.650,-0.70,0.75,-0.21,1.05
12.660,-0.75,1.24,-0.41,1.50
12.670,-0.84,1.78,-0.22,1.98
12.680,-0.83,2.11,0.35,2.29
12.690,-0.84,2.33,0.99,2.67
12.700,-0.83,2.46,1.55,3.02
12.710,-0.78,2.61,1.90,3.32
12.720,-0.78,2.72,2.07,3.51
12.730,-0.90,2.72,1.94,3.46
12.740,-1.09,2.68,1.49,3.25
12.750,-1.34,2.68,0.84,3.11
12.760,-1.61,2.57,0.31,3.05
12.770,-1.89,2.39,-0.09,3.05
12.780,-2.09,2.03,-0.30,2.93
12.791,-2.32,1.56,-0.29,2.81
12.801,-2.64,1.11,-0.08,2.87
12.811,-2.80,0.66,0.15,2.88
12.821,-2.91,0.31,0.30,2.94
12.831,-3.05,0.08,0.29,3.06
12.841,-3.02,-0.01,0.13,3.02
12.851,-2.88,-0.03,-0.13,2.89
12.861,-2.80,0.03,-0.39,2.83
12.871,-2.76,0.01,-0.49,2.80
12.881,-2.61,-0.12,-0.41,2.65
12.891,-2.38,-0.23,-0.23,2.40
12.901,-2.15,-0.29,0.07,2.18
12.912,-1.97,-0.39,0.35,2.04
12.921,-1.90,-0.50,0.51,2.03
12.932,-1.92,-0.67,0.58,2.12
12.942,-1.94,-0.81,0.59,2.18
12.952,-1.79,-0.87,0.56,2.06
12.962,-1.64,-0.79,0.50,1.89
12.972,-1.57,-0.77,0.41,1.79
12.982,-1.46,-0.78,0.25,1.67
12.992,-1.33,-0.70,0.08,1.51
13.002,-1.18,-0.65,0.05,1.34
13.012,-0.95,-0.67,0.23,1.18
13.022,-0.65,-0.63,0.47,1.02
13.033,-0.49,-0.62,0.58,0.99
13.042,-0.46,-0.71,0.59,1.03
13.053,-0.52,-0.75,0.55,1.07
13.063,-0.67,-0.74,0.53,1.13
13.073,-0.82,-0.84,0.44,1.25
13.083,-0.93,-0.86,0.36,1.32
13.093,-1.05,-0.78,0.24,1.33
13.103,-1.20,-0.69,0.10,1.39
13.113,-1.30,-0.66,0.05,1.46
13.123,-1.31,-0.63,0.26,1.48
13.133,-1.21,-0.64,0.57,1.49
13.143,-1.02,-0.62,0.98,1.55
13.154,-0.85,-0.56,1.30,1.65
13.163,-0.71,-0.43,1.28,1.52
13.174,-0.43,-0.29,1.06,1.18
13.184,-0.14,-0.09,0.85,0.87
13.194,0.06,0.11,0.71,0.72
13.204,0.32,0.23,0.55,0.68
13.214,0.63,0.29,0.43,0.81
13.224,0.92,0.35,0.37,1.05
13.234,1.11,0.33,0.35,1.21
13.244,1.30,0.25,0.46,1.40
13.254,1.34,0.10,0.65,1.49
13.264,1.23,-0.10,0.81,1.48
13.275,1.03,-0.35,0.88,1.40
13.284,0.84,-0.58,0.88,1.35
13.295,0.79,-0.70,0.82,1.34
13.305,0.86,-0.70,0.66,1.29
13.315,0.94,-0.70,0.38,1.24
13.325,0.93,-0.72,0.00,1.17
13.335,0.93,-0.79,-0.38,1.28
13.345,0.95,-0.92,-0.65,1.47
13.355,0.95,-1.06,-0.77,1.62
13.365,0.98,-1.26,-0.90,1.84
13.375,1.03,-1.39,-0.90,1.95
13.385,1.25,-1.54,-0.80,2.14
13.396,1.57,-1.60,-0.66,2.33
13.405,1.90,-1.55,-0.55,2.52
13.416,2.24,-1.44,-0.53,2.71
13.426,2.59,-1.05,-0.54,2.85
13.436,2.98,-0.34,-0.57,3.05
13.446,3.28,0.37,-0.63,3.36
13.456,3.54,0.94,-0.60,3.71
13.466,3.85,1.43,-0.54,4.15
13.476,4.07,1.91,-0.44,4.51
13.486,4.17,2.50,-0.32,4.87
13.496,4.19,2.96,-0.34,5.15
13.506,3.99,3.17,-0.42,5.11
13.516,3.77,3.25,-0.36,4.99
13.526,3.70,2.94,-0.02,4.73
13.537,3.64,2.59,0.66,4.52
13.546,3.68,2.19,1.45,4.52
13.557,3.75,1.81,2.06,4.65
13.567,3.77,1.50,2.27,4.65
13.577,3.74,1.28,1.95,4.41
13.587,3.45,1.06,1.11,3.77
13.597,2.85,0.75,0.19,2.95
13.607,2.20,0.39,-0.48,2.28
13.617,1.72,0.05,-0.81,1.90
13.627,1.38,-0.21,-0.93,1.68
13.637,1.09,-0.47,-0.84,1.45
13.647,0.69,-0.81,-0.76,1.30
13.657,0.41,-1.07,-0.74,1.36
13.667,0.36,-1.13,-0.81,1.44
13.678,0.36,-1.12,-0.91,1.49
13.688,0.46,-1.19,-0.96,1.59
13.698,0.49,-1.20,-0.93,1.59
13.708,0.46,-1.21,-0.87,1.56
13.718,0.42,-1.27,-0.87,1.59
13.728,0.33,-1.32,-0.80,1.58
13.738,0.30,-1.35,-0.66,1.54
13.748,0.39,-1.33,-0.46,1.46
13.758,0.38,-1.28,-0.25,1.36
13.768,0.42,-1.22,-0.14,1.30
13.778,0.42,-1.21,-0.01,1.28
13.788,0.38,-1.27,0.21,1.34
13.799,0.47,-1.19,0.41,1.34
13.808,0.66,-1.00,0.60,1.35
13.819,0.92,-0.78,0.67,1.38
13.829,1.15,-0.56,0.67,1.45
13.839,1.41,-0.39,0.50,1.55
13.849,1.58,-0.25,0.18,1.61
13.859,1.69,-0.05,-0.19,1.71
13.869,1.66,0.09,-0.55,1.75
13.879,1.61,0.23,-0.75,1.79
13.889,1.47,0.33,-0.74,1.68
13.899,1.31,0.35,-0.46,1.43
13.909,1.09,0.37,-0.02,1.15
13.920,0.83,0.34,0.43,0.99
13.930,0.41,0.12,0.62,0.75
13.940,-0.16,-0.15,0.55,0.59
13.949,-0.68,-0.35,0.39,0.85
13.960,-1.03,-0.46,0.20,1.15
13.970,-1.23,-0.58,-0.05,1.36
13.980,-1.48,-0.68,-0.20,1.64
13.990,-1.64,-0.85,-0.20,1.86
14.000,-1.81,-0.99,-0.20,2.07
14.010,-2.07,-1.18,-0.24,2.39
14.020,-2.21,-1.28,-0.18,2.56
14.030,-2.43,-1.32,-0.09,2.77
14.040,-2.61,-1.26,-0.12,2.90
14.050,-2.74,-1.14,-0.14,2.97
14.061,-2.72,-1.03,-0.06,2.91
14.071,-2.66,-0.92,0.05,2.81
14.081,-2.56,-0.78,0.20,2.68
14.091,-2.35,-0.58,0.46,2.47
14.101,-2.17,-0.43,0.67,2.31
14.111,-1.86,-0.34,0.84,2.07
14.121,-1.60,-0.19,0.74,1.77
14.131,-1.39,-0.05,0.58,1.50
14.141,-1.18,0.07,0.40,1.25
14.151,-1.01,0.09,0.23,1.04
14.161,-0.82,-0.00,0.24,0.85
14.171,-0.74,-0.17,0.46,0.89
14.182,-0.72,-0.36,0.86,1.18
14.192,-0.74,-0.53,1.25,1.55
14.202,-0.85,-0.54,1.58,1.88
14.212,-0.95,-0.38,1.74,2.02
14.222,-1.02,-0.10,1.81,2.07
14.232,-1.09,0.31,1.68,2.03
14.242,-1.09,0.82,1.29,1.88
14.252,-1.06,1.29,0.77,1.84
14.262,-1.05,1.71,0.27,2.02
14.272,-1.08,2.14,-0.20,2.40
14.282,-1.07,2.55,-0.47,2.80
14.292,-1.02,2.88,-0.59,3.11
14.303,-1.07,3.12,-0.58,3.35
14.312,-1.24,3.21,-0.39,3.46
14.323,-1.52,3.06,0.04,3.42
14.333,-1.74,2.75,0.56,3.30
14.343,-1.94,2.45,1.17,3.34
14.353,-2.08,2.13,1.71,3.44
14.363,-2.17,1.83,2.07,3.51
14.373,-2.23,1.51,2.20,3.48
14.383,-2.24,1.14,2.07,3.26
14.393,-2.32,0.76,1.78,3.03
14.403,-2.33,0.48,1.37,2.75
14.413,-2.30,0.34,0.90,2.50
14.423,-2.31,0.29,0.54,2.40
14.433,-2.30,0.20,0.38,2.34
14.444,-2.30,0.02,0.36,2.32
14.453,-2.21,-0.20,0.60,2.30
14.464,-1.98,-0.42,1.01,2.26
14.474,-1.68,-0.57,1.32,2.21
14.484,-1.48,-0.65,1.45,2.17
14.494,-1.42,-0.70,1.29,2.04
14.504,-1.37,-0.59,0.99,1.79
14.514,-1.31,-0.46,0.56,1.50
14.524,-1.27,-0.44,0.15,1.36
14.534,-1.20,-0.33,-0.05,1.24
14.544,-1.08,-0.34,-0.15,1.14
14.554,-1.08,-0.43,-0.13,1.17
14.565,-1.14,-0.55,0.01,1.27
14.575,-1.25,-0.68,0.30,1.46
14.585,-1.28,-0.75,0.66,1.62
14.595,-1.18,-0.72,0.99,1.70
14.605,-0.97,-0.63,1.20,1.67
14.615,-0.72,-0.56,1.28,1.57
14.625,-0.38,-0.42,1.29,1.41
14.635,-0.05,-0.34,1.20,1.25
14.645,0.30,-0.24,1.04,1.10
14.655,0.51,-0.16,0.93,1.07
14.665,0.52,-0.19,0.82,0.98
14.675,0.51,-0.21,0.66,0.86
14.686,0.55,-0.19,0.51,0.77
14.696,0.53,-0.18,0.40,0.69
14.706,0.37,-0.15,0.16,0.43
14.716,0.21,-0.02,-0.12,0.24
14.726,0.13,0.05,-0.38,0.40
14.736,-0.01,0.16,-0.68,0.70
14.746,-0.06,0.27,-0.93,0.97
14.756,-0.08,0.38,-1.14,1.20
14.766,-0.00,0.45,-1.26,1.34
14.776,0.12,0.48,-1.21,1.31
14.787,0.39,0.43,-1.01,1.17
14.796,0.74,0.33,-0.68,1.06
14.806,1.01,0.22,-0.35,1.09
14.817,1.10,0.10,-0.20,1.13
14.827,1.03,-0.07,-0.22,1.06
14.837,0.80,-0.23,-0.37,0.91
14.847,0.59,-0.37,-0.55,0.88
14.857,0.46,-0.45,-0.66,0.92
14.867,0.54,-0.51,-0.65,0.99
14.877,0.68,-0.58,-0.56,1.06
14.887,0.91,-0.65,-0.48,1.22
14.897,1.21,-0.66,-0.40,1.44
14.907,1.44,-0.68,-0.35,1.63
14.917,1.54,-0.80,-0.36,1.77
14.927,1.53,-0.96,-0.44,1.86
14.937,1.45,-1.14,-0.63,1.95
14.948,1.32,-1.27,-0.94,2.06
14.958,1.08,-1.31,-1.16,2.05
14.968,0.96,-1.33,-1.19,2.03
14.978,1.00,-1.22,-1.11,1.93
14.988,1.22,-0.99,-0.93,1.83
14.998,1.78,-0.67,-0.72,2.03
15.008,2.46,-0.19,-0.58,2.54
15.018,3.13,0.34,-0.68,3.22
15.028,3.51,0.72,-0.78,3.67
15.038,3.70,0.94,-1.06,3.96
15.048,3.72,1.15,-1.50,4.17
15.058,3.61,1.35,-1.83,4.27
15.069,3.43,1.46,-1.95,4.21
15.078,3.34,1.43,-2.05,4.17
15.089,3.10,1.59,-1.90,3.97
15.099,2.82,1.61,-1.70,3.66
15.109,2.36,1.58,-1.38,3.15
15.119,1.95,1.55,-1.14,2.74
15.129,1.77,1.60,-0.91,2.56
15.139,1.79,1.68,-0.63,2.54
15.149,1.90,1.55,-0.29,2.47
15.159,2.09,1.25,0.09,2.44
15.169,2.26,0.98,0.38,2.50
15.179,2.32,0.62,0.60,2.48
15.190,2.31,0.30,0.80,2.46
15.199,2.16,0.02,0.88,2.34
15.210,1.81,-0.25,0.73,1.96
15.220,1.43,-0.41,0.49,1.56
15.230,1.06,-0.55,0.28,1.22
15.240,0.84,-0.70,0.20,1.11
15.250,0.83,-0.72,0.16,1.11
15.260,0.78,-0.66,0.08,1.02
15.270,0.85,-0.65,0.07,1.07
15.280,1.02,-0.56,0.05,1.16
15.290,1.05,-0.45,-0.04,1.15
15.300,0.90,-0.34,-0.13,0.97
15.310,0.72,-0.33,-0.13,0.80
15.320,0.61,-0.36,0.04,0.71
15.331,0.62,-0.27,0.26,0.73
15.340,0.57,-0.20,0.54,0.81
15.351,0.55,-0.19,0.84,1.02
15.361,0.64,-0.16,1.04,1.23
15.371,0.82,-0.14,1.19,1.46
15.381,1.00,-0.21,1.23,1.60
15.391,1.11,-0.28,1.06,1.56
15.401,1.09,-0.42,0.90,1.47
15.411,1.07,-0.62,0.77,1.46
15.421,1.00,-0.78,0.62,1.41
15.431,0.86,-0.98,0.44,1.37
15.441,0.68,-1.13,0.31,1.35
15.452,0.49,-1.25,0.23,1.37
15.461,0.31,-1.38,0.19,1.42
15.472,0.09,-1.44,0.11,1.45
15.482,-0.22,-1.43,-0.01,1.44
15.492,-0.48,-1.33,-0.15,1.42
15.502,-0.60,-1.15,-0.17,1.31
15.512,-0.60,-1.02,-0.38,1.25
15.522,-0.66,-0.78,-0.57,1.17
15.532,-0.83,-0.49,-0.70,1.19
15.542,-0.82,-0.30,-0.95,1.28
15.553,-0.75,-0.04,-1.04,1.28
15.562,-0.71,0.09,-0.97,1.20
15.572,-0.67,0.02,-0.83,1.07
15.582,-0.81,-0.15,-0.67,1.06
15.593,-1.08,-0.46,-0.47,1.26
15.603,-1.24,-0.70,-0.14,1.43
15.613,-1.26,-0.86,0.26,1.55
15.623,-1.30,-0.93,0.62,1.71
15.633,-1.26,-0.97,0.84,1.80
15.643,-1.17,-1.01,1.00,1.84
15.653,-0.97,-0.88,1.08,1.70
15.663,-0.69,-0.68,1.03,1.42
15.673,-0.39,-0.47,0.88,1.07
15.683,-0.24,-0.32,0.59,0.71
15.694,-0.25,-0.24,0.26,0.44
15.703,-0.32,-0.15,-0.12,0.37
15.714,-0.43,-0.07,-0.43,0.62
15.723,-0.58,-0.04,-0.67,0.89
15.734,-0.71,0.01,-0.86,1.11
15.744,-0.79,0.12,-0.86,1.18
15.754,-0.77,0.33,-0.63,1.05
15.764,-0.77,0.55,-0.24,0.98
15.774,-0.74,0.76,0.26,1.09
15.784,-0.62,1.00,0.78,1.41
15.794,-0.45,1.31,1.23,1.85
15.804,-0.29,1.65,1.54,2.27
15.814,-0.10,1.96,1.68,2.58
15.824,0.06,2.30,1.58,2.79
15.835,0.16,2.59,1.43,2.96
15.845,0.25,2.69,1.32,3.01
15.855,0.37,2.68,1.19,2.96
15.865,0.29,2.64,1.03,2.85
15.875,0.05,2.49,0.65,2.58
15.885,-0.28,2.26,0.14,2.28
15.895,-0.56,2.07,-0.20,2.16
15.905,-0.73,1.98,-0.26,2.13
15.915,-0.94,1.75,-0.17,2.00
15.925,-1.26,1.34,-0.10,1.84
15.935,-1.60,0.90,-0.18,1.85
15.945,-1.88,0.54,-0.22,1.97
15.956,-2.09,0.23,-0.22,2.11
15.966,-2.22,0.07,-0.31,2.25
15.976,-2.35,-0.02,-0.42,2.39
15.986,-2.45,-0.11,-0.45,2.49
15.996,-2.47,-0.11,-0.48,2.52
16.006,-2.49,-0.12,-0.44,2.53
16.016,-2.45,-0.15,-0.32,2.48
16.026,-2.38,-0.18,-0.11,2.39
16.036,-2.23,-0.21,0.08,2.25
16.046,-2.14,-0.31,0.18,2.17
16.056,-2.10,-0.40,0.24,2.15
16.066,-2.07,-0.45,0.25,2.14
16.077,-2.03,-0.45,0.31,2.10
16.086,-1.92,-0.44,0.41,2.01
16.097,-1.79,-0.50,0.55,1.94
16.106,-1.68,-0.63,0.62,1.90
16.117,-1.65,-0.77,0.55,1.91
16.127,-1.68,-0.99,0.30,1.98
16.137,-1.77,-1.24,-0.04,2.16
16.147,-1.82,-1.43,-0.39,2.35
16.157,-1.79,-1.52,-0.68,2.44
16.167,-1.79,-1.33,-0.84,2.38
16.177,-1.77,-1.03,-0.91,2.24
16.187,-1.68,-0.73,-0.87,2.03
16.198,-1.61,-0.47,-0.66,1.81
16.207,-1.49,-0.18,-0.18,1.52
16.218,-1.32,0.12,0.49,1.41
16.228,-1.09,0.38,1.13,1.62
16.238,-0.84,0.62,1.69,1.99
16.248,-0.54,0.91,2.13,2.38
16.258,-0.34,1.15,2.34,2.63
16.268,-0.26,1.28,2.29,2.64
16.278,-0.25,1.33,1.99,2.40
16.288,-0.31,1.41,1.64,2.18
16.298,-0.33,1.28,1.22,1.80
16.308,-0.29,1.14,0.90,1.48
16.318,-0.20,0.97,0.72,1.23
16.328,-0.06,0.78,0.60,0.98
16.339,0.02,0.55,0.56,0.79
16.349,0.06,0.27,0.56,0.63
16.359,0.22,-0.02,0.61,0.65
16.369,0.42,-0.22,0.72,0.86
16.379,0.62,-0.41,0.83,1.11
16.389,0.86,-0.55,0.84,1.32
16.399,1.13,-0.65,0.71,1.49
16.409,1.34,-0.77,0.43,1.60
16.419,1.49,-0.87,0.08,1.73
16.429,1.56,-0.99,-0.26,1.86
16.439,1.59,-1.09,-0.53,2.00
16.449,1.63,-1.19,-0.71,2.14
16.460,1.59,-1.24,-0.81,2.17
16.469,1.52,-1.35,-0.98,2.26
16.480,1.50,-1.41,-1.17,2.36
16.490,1.42,-1.40,-1.38,2.43
16.500,1.33,-1.38,-1.63,2.51
16.510,1.29,-1.34,-1.85,2.62
16.520,1.26,-1.26,-2.03,2.71
16.530,1.34,-1.13,-2.18,2.80
16.540,1.44,-0.93,-2.29,2.86
16.550,1.59,-0.70,-2.27,2.86
16.560,1.73,-0.57,-2.09,2.77
16.570,1.85,-0.48,-1.69,2.55
16.581,1.97,-0.40,-1.23,2.36
16.590,1.99,-0.32,-0.77,2.16
16.601,2.04,-0.30,-0.31,2.09
16.611,2.18,-0.13,0.05,2.18
16.621,2.30,0.21,0.34,2.34
16.631,2.41,0.58,0.52,2.53
16.641,2.59,0.97,0.67,2.84
16.651,2.82,1.33,0.84,3.23
16.661,3.10,1.63,1.01,3.64
16.671,3.35,1.82,1.16,3.98
16.681,3.50,1.89,1.17,4.15
16.691,3.36,1.81,1.16,3.99
16.701,3.13,1.52,1.06,3.63
16.711,2.95,1.21,0.96,3.33
16.722,2.83,1.05,0.77,3.11
16.731,2.82,0.99,0.52,3.04
16.744,2.94,0.89,0.29,3.09
16.752,2.96,0.70,0.12,3.04
16.762,2.90,0.54,-0.07,2.95
16.772,2.79,0.30,-0.19,2.81
16.782,2.56,0.03,-0.26,2.58
16.792,2.27,-0.17,-0.30,2.29
16.802,1.88,-0.39,-0.28,1.94
16.812,1.44,-0.58,-0.19,1.56
16.822,1.10,-0.77,-0.09,1.34
16.832,0.88,-0.91,0.05,1.27
16.843,0.78,-1.00,0.18,1.28
16.852,0.76,-0.98,0.33,1.28
16.863,0.78,-0.99,0.45,1.34
16.873,0.93,-1.06,0.46,1.49
16.883,0.98,-1.06,0.35,1.49
16.893,1.01,-1.11,0.12,1.51
16.903,1.00,-1.10,-0.18,1.50
16.913,0.93,-1.06,-0.42,1.47
16.923,0.79,-1.06,-0.58,1.44
16.933,0.63,-1.06,-0.60,1.37
16.943,0.41,-1.09,-0.56,1.30
16.953,0.20,-1.09,-0.61,1.26
16.964,0.05,-1.03,-0.60,1.19
16.973,-0.13,-1.01,-0.64,1.20
16.984,-0.33,-1.07,-0.75,1.35
16.994,-0.49,-1.00,-0.87,1.41
17.004,-0.47,-0.81,-0.89,1.29
17.014,-0.38,-0.63,-0.75,1.05
17.024,-0.38,-0.46,-0.48,0.77
17.034,-0.42,-0.40,-0.26,0.63
17.044,-0.49,-0.31,-0.15,0.60
17.054,-0.48,-0.17,-0.14,0.53
17.064,-0.29,0.04,-0.09,0.31
17.074,-0.11,0.28,-0.06,0.31
17.084,0.01,0.47,-0.16,0.50
17.094,0.00,0.69,-0.31,0.76
17.104,-0.08,0.89,-0.48,1.02
17.115,-0.15,1.00,-0.58,1.17
17.125,-0.20,1.11,-0.61,1.28
17.135,-0.10,1.14,-0.46,1.24
17.145,0.10,1.02,-0.07,1.03
17.155,0.30,0.78,0.50,0.97
17.165,0.39,0.46,1.03,1.20
17.175,0.43,0.10,1.39,1.46
17.185,0.33,-0.21,1.53,1.58
17.195,0.02,-0.47,1.35,1.43
17.205,-0.47,-0.67,0.94,1.24
17.215,-0.96,-0.83,0.48,1.36
17.226,-1.32,-0.96,0.10,1.63
17.235,-1.45,-1.01,-0.17,1.77
17.246,-1.53,-1.02,-0.34,1.87
17.256,-1.47,-1.05,-0.43,1.86
17.266,-1.36,-0.99,-0.41,1.73
17.276,-1.26,-0.92,-0.32,1.60
17.286,-1.09,-0.86,-0.23,1.40
17.296,-0.91,-0.75,-0.10,1.18
17.306,-0.72,-0.71,0.01,1.01
17.316,-0.62,-0.75,0.14,0.98
17.327,-0.58,-0.78,0.28,1.00
17.336,-0.57,-0.75,0.42,1.03
17.346,-0.70,-0.65,0.53,1.09
17.356,-0.83,-0.53,0.58,1.14
17.367,-1.05,-0.36,0.47,1.21
17.377,-1.41,-0.07,0.31,1.45
17.387,-1.83,0.36,0.17,1.87
17.397,-2.09,0.94,0.09,2.29
17.407,-2.17,1.54,0.03,2.66
17.417,-2.02,2.15,0.09,2.95
17.427,-1.82,2.69,0.31,3.26
17.437,-1.64,3.08,0.50,3.53
17.447,-1.41,3.40,0.62,3.74
17.457,-1.25,3.57,0.70,3.84
17.467,-1.07,3.68,0.74,3.90
17.477,-0.89,3.72,0.81,3.91
17.488,-0.81,3.64,0.88,3.83
17.498,-0.78,3.42,0.96,3.64
17.508,-0.83,3.08,1.06,3.36
17.518,-0.96,2.59,1.16,3.00
17.528,-1.17,2.03,1.17,2.62
17.538,-1.47,1.46,1.15,2.37
17.548,-1.75,0.93,1.10,2.27
17.558,-2.02,0.48,0.98,2.30
17.568,-2.18,0.12,0.88,2.36
17.578,-2.24,-0.13,0.78,2.37
17.588,-2.16,-0.31,0.66,2.28
17.598,-2.04,-0.42,0.48,2.14
17.609,-1.98,-0.48,0.24,2.05
17.618,-1.78,-0.48,-0.04,1.84
17.629,-1.59,-0.49,-0.30,1.69
17.639,-1.49,-0.61,-0.44,1.67
17.649,-1.36,-0.74,-0.50,1.62
17.659,-1.31,-0.81,-0.46,1.60
17.669,-1.30,-0.88,-0.37,1.61
17.679,-1.31,-0.98,-0.35,1.67
17.689,-1.44,-1.02,-0.34,1.80
17.699,-1.50,-1.02,-0.30,1.84
17.709,-1.52,-1.00,-0.21,1.84
17.719,-1.50,-0.94,-0.07,1.77
17.729,-1.49,-0.89,0.08,1.73
17.739,-1.42,-0.89,0.24,1.70
17.750,-1.38,-0.88,0.36,1.67
17.760,-1.27,-0.88,0.53,1.63
17.770,-1.08,-0.81,0.74,1.54
17.780,-0.88,-0.69,0.90,1.43
17.790,-0.69,-0.59,0.99,1.34
17.800,-0.65,-0.50,0.99,1.29
17.810,-0.69,-0.43,0.82,1.15
17.820,-0.69,-0.31,0.56,0.94
17.830,-0.67,-0.18,0.35,0.78
17.840,-0.56,-0.12,0.25,0.62
17.850,-0.42,0.00,0.24,0.48
17.860,-0.16,0.13,0.23,0.31
17.871,0.07,0.22,0.21,0.31
17.881,0.29,0.26,0.12,0.41
17.891,0.51,0.30,-0.00,0.59
17.901,0.76,0.27,-0.04,0.81
17.911,0.97,0.22,0.03,0.99
17.921,1.14,0.16,0.07,1.16
17.931,1.31,0.08,0.13,1.31
17.941,1.39,-0.03,0.18,1.40
17.951,1.45,-0.14,0.18,1.47
17.961,1.50,-0.16,0.20,1.52
17.971,1.55,-0.25,0.24,1.58
17.981,1.59,-0.44,0.26,1.67
17.992,1.48,-0.70,0.32,1.67
18.001,1.35,-1.02,0.41,1.74
18.012,1.29,-1.28,0.44,1.87
18.021,1.34,-1.45,0.33,2.00
18.032,1.43,-1.48,0.06,2.06
18.042,1.42,-1.44,-0.39,2.06
18.052,1.31,-1.44,-0.95,2.17
18.062,1.17,-1.42,-1.45,2.34
18.072,1.05,-1.43,-1.84,2.55
18.082,1.03,-1.42,-2.03,2.68
18.092,1.04,-1.38,-2.14,2.75
18.102,1.16,-1.30,-2.13,2.75
18.112,1.27,-1.19,-2.00,2.65
18.122,1.38,-1.10,-1.74,2.48
18.133,1.57,-0.95,-1.47,2.35
18.143,1.85,-0.64,-1.15,2.27
18.153,2.11,-0.22,-0.93,2.32
18.163,2.50,0.20,-0.86,2.65
18.173,2.96,0.71,-0.81,3.15
18.183,3.43,1.20,-0.63,3.69
18.193,3.90,1.49,-0.32,4.19
18.203,4.17,1.55,0.03,4.45
18.213,4.13,1.56,0.39,4.43
18.223,3.84,1.47,0.65,4.16
18.233,3.48,1.51,0.80,3.88
18.243,3.21,1.67,0.77,3.70
18.254,3.04,1.88,0.60,3.62
18.263,2.90,1.92,0.52,3.52
18.274,2.85,1.77,0.51,3.39
18.284,2.93,1.51,0.67,3.37
18.294,3.07,1.14,0.94,3.41
18.304,3.10,0.75,1.10,3.37
18.314,3.01,0.43,1.19,3.26
18.324,2.81,0.12,1.24,3.07
18.334,2.56,-0.12,1.19,2.83
18.344,2.41,-0.20,1.03,2.63
18.354,2.22,-0.26,0.92,2.42
18.364,1.85,-0.43,0.71,2.03
18.375,1.54,-0.62,0.42,1.71
18.384,1.30,-0.78,0.17,1.53
18.395,1.08,-0.85,-0.07,1.38
18.405,0.98,-0.89,-0.20,1.33
18.415,0.90,-1.03,-0.32,1.40
18.425,0.74,-0.97,-0.37,1.28
18.435,0.64,-0.96,-0.41,1.22
18.445,0.54,-0.94,-0.40,1.16
18.455,0.49,-0.92,-0.32,1.09
18.465,0.42,-0.83,-0.16,0.94
18.475,0.29,-0.78,-0.05,0.83
18.485,0.22,-0.75,0.03,0.78
18.495,0.10,-0.64,0.16,0.67
18.505,0.04,-0.63,0.28,0.69
18.516,0.03,-0.55,0.56,0.79
18.526,0.01,-0.40,0.84,0.93
18.536,-0.07,-0.36,0.94,1.01
18.546,-0.18,-0.25,0.94,0.99
18.556,-0.22,-0.24,0.86,0.92
18.566,-0.20,-0.11,0.86,0.89
18.576,-0.11,-0.02,0.93,0.93
18.586,-0.05,0.07,0.94,0.94
18.596,-0.09,0.08,0.89,0.90
18.606,-0.18,0.05,0.71,0.73
18.616,-0.23,0.12,0.36,0.44
18.626,-0.29,0.19,-0.07,0.35
18.637,-0.44,0.23,-0.44,0.67
18.647,-0.58,0.21,-0.70,0.94
18.657,-0.71,0.14,-0.88,1.15
18.667,-0.64,0.11,-0.96,1.16
18.677,-0.40,0.17,-1.03,1.12
18.687,-0.29,0.23,-1.09,1.15
18.697,-0.41,0.24,-1.15,1.24
18.707,-0.59,0.04,-1.15,1.29
18.717,-0.89,-0.20,-0.94,1.31
18.727,-1.21,-0.47,-0.53,1.40
18.737,-1.43,-0.76,0.12,1.63
18.747,-1.60,-1.02,0.66,2.01
18.758,-1.81,-1.22,0.97,2.39
18.767,-2.01,-1.43,1.01,2.67
18.778,-2.23,-1.54,0.92,2.86
18.788,-2.32,-1.45,0.71,2.82
18.798,-2.24,-1.26,0.46,2.61
18.808,-2.07,-0.99,0.17,2.30
18.818,-1.78,-0.58,-0.15,1.88
18.828,-1.52,-0.25,-0.45,1.60
18.838,-1.26,-0.03,-0.70,1.44
18.848,-1.11,0.16,-0.76,1.35
18.858,-0.95,0.24,-0.70,1.21
18.868,-0.77,0.37,-0.58,1.03
18.878,-0.57,0.54,-0.44,0.90
18.888,-0.50,0.69,-0.28,0.90
18.899,-0.68,0.87,-0.15,1.12
18.909,-1.01,1.14,-0.15,1.53
18.919,-1.37,1.51,-0.17,2.04
18.929,-1.67,1.92,-0.17,2.55
18.939,-2.09,2.50,-0.24,3.27
18.949,-2.43,3.22,-0.52,4.07
18.959,-2.65,3.76,-0.96,4.70
18.969,-2.77,4.15,-1.09,5.11
18.979,-2.64,4.32,-0.66,5.11
18.989,-2.33,4.20,0.30,4.81
18.999,-1.90,4.10,1.69,4.83
19.009,-1.21,4.10,2.99,5.21
19.020,-0.69,3.93,3.73,5.47
19.029,-0.49,3.59,4.03,5.42
19.040,-0.56,3.11,3.85,4.98
19.050,-0.79,2.57,3.10,4.10
19.060,-1.13,1.93,2.07,3.05
19.070,-1.45,1.43,1.20,2.37
19.080,-1.61,0.90,0.56,1.93
19.090,-1.62,0.39,0.16,1.68
19.100,-1.51,0.02,-0.15,1.52
19.110,-1.30,-0.29,-0.37,1.38
19.120,-1.24,-0.63,-0.54,1.49
19.130,-1.23,-0.92,-0.69,1.69
19.141,-1.08,-1.09,-0.90,1.78
19.151,-0.95,-1.21,-1.09,1.89
19.161,-0.93,-1.32,-1.23,2.03
19.171,-0.92,-1.38,-1.38,2.16
19.181,-0.90,-1.47,-1.47,2.27
19.191,-0.91,-1.48,-1.42,2.24
19.201,-0.98,-1.56,-1.28,2.24
19.211,-1.01,-1.58,-1.03,2.14
19.221,-0.84,-1.48,-0.75,1.86
19.231,-0.80,-1.37,-0.61,1.70
19.241,-0.98,-1.28,-0.58,1.71
19.251,-1.13,-1.16,-0.51,1.70
19.261,-1.36,-1.13,-0.42,1.82
19.271,-1.71,-1.10,-0.29,2.06
19.282,-1.78,-1.13,-0.00,2.11
19.292,-1.74,-1.08,0.31,2.07
19.302,-1.85,-0.85,0.49,2.09
19.312,-1.90,-0.85,0.32,2.11
19.322,-1.85,-0.69,0.31,2.00
19.332,-1.51,-0.56,0.46,1.67
19.342,-0.90,-0.46,0.71,1.24
19.352,-0.28,-0.24,0.89,0.96
19.362,0.20,0.01,0.99,1.01
19.372,0.30,0.14,0.71,0.78
19.382,0.20,0.17,0.17,0.31
19.392,0.05,0.29,0.12,0.32
19.403,-0.07,0.28,0.05,0.30
19.413,-0.08,0.25,-0.14,0.30
19.423,0.19,0.29,-0.20,0.40
19.433,0.41,0.43,-0.07,0.60
19.443,0.57,0.35,0.12,0.68
19.453,0.76,0.19,0.32,0.84
19.463,1.05,0.08,0.65,1.24
19.473,1.41,-0.01,0.81,1.63
19.483,1.67,-0.08,0.79,1.85
19.493,1.69,-0.23,0.58,1.80
19.503,1.58,-0.43,0.25,1.66
19.513,1.45,-0.61,-0.03,1.57
19.524,1.42,-0.73,-0.11,1.60
19.533,1.49,-0.93,-0.11,1.76
19.544,1.55,-1.07,0.11,1.88
19.554,1.79,-1.04,0.37,2.10
19.564,2.21,-1.02,0.59,2.50
19.574,2.35,-1.03,0.61,2.64
19.584,2.28,-1.02,0.39,2.53
19.594,2.23,-1.11,-0.06,2.49
19.604,2.23,-1.15,-0.48,2.55
19.614,2.16,-1.18,-0.78,2.58
19.624,2.05,-1.27,-0.96,2.59
19.634,1.84,-1.36,-1.03,2.51
19.644,1.43,-1.49,-0.92,2.26
19.654,1.25,-1.59,-0.75,2.16
19.665,1.49,-1.47,-0.46,2.14
19.675,1.92,-1.12,-0.18,2.23
19.685,2.34,-0.65,0.14,2.43
19.695,2.51,-0.33,0.18,2.54
19.705,2.24,0.05,-0.21,2.25
19.715,1.82,0.37,-0.89,2.06
19.725,1.54,0.71,-1.45,2.23
19.735,1.46,1.12,-1.63,2.46
19.745,1.74,1.34,-1.07,2.44
19.755,2.15,1.52,0.13,2.64
19.766,2.55,1.57,1.27,3.25
19.775,2.78,1.54,1.98,3.75
19.786,2.89,1.49,2.10,3.87
19.796,2.95,1.47,1.74,3.73
19.806,2.92,1.34,1.39,3.50
19.816,3.38,1.46,1.08,3.84
19.826,3.90,1.59,1.00,4.33
19.836,4.02,1.36,1.24,4.42
19.846,4.01,1.14,1.62,4.47
19.856,3.84,0.86,1.82,4.33
19.866,3.52,0.31,1.69,3.91
19.876,2.98,-0.09,1.37,3.28
19.886,2.45,-0.18,0.97,2.64
19.896,2.11,-0.33,0.52,2.20
19.907,1.88,-0.36,0.19,1.93
19.917,1.79,-0.34,-0.05,1.82
19.927,1.67,-0.29,-0.18,1.71
19.937,1.60,-0.38,-0.16,1.66
19.947,1.41,-0.50,-0.03,1.49
19.957,1.30,-0.62,0.10,1.45
19.967,1.31,-0.55,0.36,1.47
19.977,1.40,-0.47,0.66,1.62
19.987,1.20,-0.77,0.72,1.60
19.997,0.85,-0.88,0.64,1.38
20.007,0.66,-0.91,0.35,1.17
20.017,0.59,-0.83,0.07,1.02
20.028,0.30,-0.71,-0.15,0.79
20.037,0.13,-0.69,-0.29,0.76
20.048,0.01,-0.65,-0.32,0.73
20.058,-0.08,-0.70,-0.14,0.72
20.068,-0.11,-0.71,0.15,0.73
20.078,-0.17,-0.76,0.35,0.86
20.088,-0.02,-0.72,0.39,0.82
20.098,0.10,-0.59,0.14,0.62
20.108,0.06,-0.46,-0.29,0.55
20.118,-0.00,-0.29,-0.69,0.75
20.128,-0.16,-0.24,-1.01,1.05
20.138,-0.16,-0.10,-1.14,1.16
20.148,0.05,0.11,-1.17,1.17
20.158,0.20,0.32,-1.10,1.17
20.169,0.32,0.46,-0.99,1.14
20.178,0.35,0.51,-0.91,1.10
20.189,0.23,0.48,-0.83,0.98
20.199,0.02,0.48,-0.77,0.91
20.209,-0.19,0.31,-0.71,0.80
20.219,-0.59,0.21,-0.63,0.89
20.229,-1.17,0.06,-0.62,1.32
20.239,-1.60,-0.23,-0.53,1.71
20.249,-1.91,-0.40,-0.39,1.99
20.259,-1.93,-0.48,-0.28,2.01
20.269,-1.76,-0.51,-0.14,1.84
20.279,-1.56,-0.50,-0.09,1.64
20.290,-1.51,-0.58,-0.33,1.65
20.299,-1.58,-0.74,-0.67,1.87
20.310,-1.60,-0.79,-0.83,1.97
20.320,-1.67,-0.72,-0.93,2.04
20.330,-1.60,-0.59,-1.04,2.00
20.340,-1.45,-0.39,-1.02,1.82
20.350,-1.32,-0.23,-0.92,1.63
20.360,-1.30,-0.07,-0.89,1.57
20.370,-1.27,0.04,-0.77,1.48
20.380,-1.23,0.15,-0.45,1.32
20.390,-1.16,0.28,-0.02,1.19
20.400,-1.03,0.31,0.48,1.18
20.410,-0.89,0.31,0.95,1.34
20.420,-0.90,0.25,1.26,1.57
20.431,-1.15,0.11,1.37,1.79
20.441,-1.50,0.01,1.33,2.01
20.451,-1.94,-0.08,1.15,2.25
20.461,-2.29,-0.16,1.00,2.51
20.471,-2.65,-0.14,0.90,2.80
20.481,-2.87,0.03,0.88,3.01
20.491,-2.90,0.46,0.94,3.08
20.502,-2.88,0.99,0.98,3.20
20.511,-3.03,1.38,0.96,3.47
20.521,-3.08,1.80,1.03,3.71
20.532,-2.93,2.24,1.15,3.86
20.541,-2.64,2.60,1.19,3.89
20.552,-2.41,2.90,1.28,3.98
20.562,-2.31,3.05,1.21,4.01
20.572,-2.30,3.07,0.97,3.96
20.582,-2.40,3.01,0.70,3.91
20.592,-2.61,2.86,0.44,3.89
20.602,-2.78,2.71,0.34,3.90
20.612,-2.94,2.49,0.39,3.87
20.622,-3.03,2.12,0.71,3.76
20.632,-3.03,1.70,1.24,3.69
20.642,-2.94,1.30,1.66,3.62
20.652,-2.79,1.02,1.93,3.54
20.662,-2.65,0.75,2.21,3.52
20.673,-2.48,0.41,2.42,3.49
20.683,-2.28,0.22,2.48,3.37
20.693,-1.93,0.13,2.42,3.10
20.703,-1.62,0.09,2.24,2.76
20.713,-1.39,0.04,1.92,2.37
20.723,-1.11,0.05,1.54,1.90
20.733,-0.85,0.06,1.24,1.50
20.743,-0.62,0.01,1.04,1.21
20.753,-0.40,-0.02,0.83,0.92
20.763,-0.19,-0.07,0.56,0.60
20.773,-0.06,-0.16,0.26,0.31
20.783,-0.05,-0.26,-0.09,0.28
20.794,-0.18,-0.41,-0.39,0.59
20.803,-0.42,-0.53,-0.58,0.89
20.814,-0.59,-0.53,-0.71,1.07
20.824,-0.73,-0.46,-0.88,1.23
20.834,-0.74,-0.36,-0.78,1.13
20.844,-0.62,-0.20,-0.59,0.88
20.854,-0.39,-0.08,-0.34,0.52
20.864,-0.15,0.02,-0.08,0.17
20.874,-0.05,0.07,0.14,0.16
20.884,-0.01,0.08,0.23,0.24
20.894,-0.04,0.04,0.28,0.29
20.904,-0.16,-0.03,0.26,0.30
20.914,-0.28,-0.07,0.26,0.39
20.924,-0.39,-0.12,0.27,0.49
20.935,-0.41,-0.17,0.22,0.50
20.945,-0.41,-0.22,0.18,0.50
20.955,-0.39,-0.28,0.23,0.53
20.965,-0.31,-0.28,0.23,0.47
20.975,-0.12,-0.19,0.21,0.31
20.985,0.04,-0.10,0.15,0.18
20.995,0.22,-0.07,0.07,0.25
21.005,0.38,-0.04,0.06,0.38
21.015,0.49,-0.05,0.08,0.50
21.025,0.58,-0.09,0.09,0.60
21.035,0.62,-0.18,0.14,0.66
21.045,0.64,-0.31,0.20,0.74
21.056,0.62,-0.42,0.18,0.76
21.066,0.55,-0.53,0.01,0.77
21.076,0.51,-0.58,-0.14,0.79
21.086,0.49,-0.61,-0.22,0.82
21.096,0.57,-0.68,-0.13,0.89
21.106,0.73,-0.69,0.15,1.01
21.116,0.94,-0.72,0.50,1.28
21.126,1.15,-0.82,0.82,1.63
21.136,1.35,-0.91,1.01,1.92
21.146,1.49,-1.03,1.06,2.10
21.156,1.62,-1.20,0.95,2.23
21.166,1.67,-1.28,0.68,2.21
21.177,1.58,-1.28,0.23,2.05
21.186,1.44,-1.27,-0.27,1.94
21.197,1.51,-1.15,-0.77,2.05
21.206,1.56,-0.80,-1.19,2.12
21.217,1.48,-0.66,-1.47,2.18
21.227,1.46,-0.72,-1.65,2.32
21.237,1.39,-0.65,-1.60,2.22
21.247,1.44,-0.55,-1.40,2.08
21.257,1.59,-0.47,-1.11,1.99
21.267,1.81,-0.20,-0.81,2.00
21.277,2.06,0.17,-0.60,2.15
21.287,2.51,0.74,-0.57,2.68
21.298,2.87,1.29,-0.82,3.25
21.307,3.30,1.64,-1.19,3.87
21.318,3.68,1.97,-1.32,4.37
21.328,3.63,1.80,-1.22,4.24
21.338,3.19,1.41,-1.01,3.63
21.348,2.82,1.13,-0.73,3.12
21.358,2.73,1.12,-0.55,3.00
21.368,2.86,1.38,-0.40,3.20
21.378,2.96,1.50,-0.21,3.32
21.388,3.14,1.39,-0.04,3.43
21.398,3.24,1.14,0.22,3.44
21.408,3.36,0.74,0.31,3.46
21.418,3.23,0.53,0.37,3.29
21.428,2.97,0.23,0.40,3.00
21.439,2.62,-0.01,0.20,2.63
21.449,2.18,-0.04,-0.12,2.18
21.459,1.55,-0.18,-0.45,1.63
21.469,0.96,-0.42,-0.72,1.27
21.479,0.49,-0.58,-0.96,1.23
21.489,0.33,-0.61,-1.08,1.28
21.499,0.41,-0.60,-1.05,1.27
21.509,0.49,-0.66,-0.95,1.26
21.519,0.58,-0.67,-0.90,1.26
21.529,0.60,-0.70,-0.90,1.29
21.539,0.68,-0.73,-0.92,1.36
21.549,0.77,-0.53,-1.07,1.42
21.560,0.68,-0.36,-1.21,1.44
21.569,0.63,-0.31,-1.25,1.43
21.580,0.74,-0.27,-1.00,1.27
21.590,0.77,-0.17,-0.47,0.91
21.600,0.68,-0.08,0.01,0.68
21.610,0.40,0.02,0.39,0.56
21.620,-0.11,0.02,0.61,0.62
21.630,-0.60,0.04,0.73,0.95
21.640,-1.00,0.05,0.93,1.36
21.650,-1.00,0.10,1.10,1.49
21.660,-0.97,0.06,1.25,1.58
21.670,-1.00,-0.09,1.56,1.85
21.680,-0.72,-0.23,1.89,2.03
21.690,-0.26,-0.29,2.26,2.29
21.701,0.08,-0.31,2.41,2.43
21.711,0.38,-0.28,2.15,2.20
21.721,0.53,-0.24,1.45,1.56
21.731,0.32,-0.18,0.41,0.55
21.741,0.19,-0.08,-0.59,0.63
21.751,0.03,-0.01,-1.32,1.33
21.761,-0.12,-0.03,-1.81,1.82
21.771,0.01,-0.09,-2.00,2.01
21.781,0.35,-0.06,-1.88,1.92
21.791,0.56,-0.03,-1.58,1.68
21.801,0.65,-0.07,-1.38,1.52
21.811,0.60,-0.14,-1.31,1.45
21.822,0.36,-0.28,-1.25,1.33
21.832,0.16,-0.42,-1.07,1.16
21.842,-0.04,-0.52,-0.69,0.86
21.852,-0.20,-0.56,-0.22,0.64
21.862,-0.47,-0.61,0.17,0.79
21.872,-0.79,-0.69,0.39,1.12
21.882,-1.03,-0.74,0.56,1.38
21.892,-1.17,-0.72,0.68,1.54
21.902,-1.33,-0.78,0.79,1.73
21.912,-1.60,-0.88,0.85,2.01
21.922,-1.76,-1.03,0.91,2.23
21.932,-1.84,-1.11,0.93,2.34
21.943,-1.78,-1.10,0.89,2.28
21.952,-1.62,-1.00,0.63,2.01
21.963,-1.60,-0.75,0.24,1.78
21.973,-1.63,-0.53,-0.27,1.74
21.983,-1.65,-0.25,-0.68,1.80
21.993,-1.62,-0.09,-1.00,1.91
22.003,-1.59,-0.00,-1.09,1.92
22.013,-1.50,0.13,-0.85,1.73
22.023,-1.29,0.30,-0.48,1.41
22.033,-1.08,0.56,-0.10,1.22
22.043,-0.86,0.79,0.08,1.17
22.053,-0.64,0.98,0.07,1.18
22.064,-0.59,1.27,-0.09,1.40
22.073,-0.56,1.46,-0.29,1.59
22.084,-0.58,1.56,-0.53,1.75
22.094,-0.64,1.67,-0.62,1.90
22.104,-0.60,1.70,-0.71,1.93
22.114,-0.67,1.75,-0.74,2.02
22.124,-0.78,1.76,-0.75,2.07
22.134,-0.85,1.78,-0.86,2.14
22.144,-1.05,1.80,-0.93,2.29
22.154,-1.24,1.79,-1.06,2.42
22.164,-1.48,1.76,-1.17,2.58
22.174,-1.65,1.70,-1.10,2.61
22.184,-1.75,1.60,-0.86,2.52
22.194,-1.66,1.50,-0.45,2.29
22.205,-1.48,1.45,-0.08,2.07
22.214,-1.35,1.31,0.22,1.89
22.225,-1.31,1.10,0.35,1.75
22.235,-1.36,0.92,0.34,1.67
22.246,-1.45,0.71,0.20,1.63
22.255,-1.55,0.48,0.07,1.63
22.265,-1.61,0.18,-0.03,1.62
22.275,-1.60,-0.04,0.01,1.61
22.285,-1.55,-0.18,0.17,1.57
22.295,-1.39,-0.24,0.36,1.45
22.305,-1.24,-0.16,0.52,1.35
22.315,-1.04,-0.08,0.55,1.18
22.326,-0.81,0.06,0.49,0.95
22.335,-0.68,0.07,0.45,0.82
22.346,-0.55,-0.03,0.45,0.71
22.356,-0.42,-0.14,0.40,0.60
22.366,-0.27,-0.16,0.27,0.41
22.376,-0.24,-0.24,0.11,0.36
22.386,-0.29,-0.39,-0.04,0.49
22.396,-0.39,-0.46,-0.22,0.64
22.406,-0.57,-0.54,-0.40,0.88
22.416,-0.80,-0.58,-0.47,1.09
22.426,-0.93,-0.57,-0.47,1.19
22.436,-0.99,-0.54,-0.24,1.15
22.446,-0.89,-0.51,0.03,1.02
22.456,-0.73,-0.44,0.26,0.90
22.467,-0.61,-0.44,0.40,0.85
22.477,-0.52,-0.51,0.40,0.82
22.487,-0.53,-0.60,0.34,0.87
22.497,-0.64,-0.74,0.28,1.02
22.507,-0.81,-0.85,0.28,1.21
22.517,-0.96,-1.01,0.30,1.43
22.527,-1.05,-1.10,0.28,1.55
22.537,-1.07,-0.95,0.04,1.43
22.547,-1.06,-0.75,-0.31,1.34
22.557,-0.97,-0.56,-0.57,1.26
22.568,-0.71,-0.32,-0.56,0.96
22.577,-0.19,-0.06,-0.38,0.43
22.588,0.45,0.04,-0.01,0.46
22.598,0.91,0.20,0.52,1.07
22.608,1.24,0.22,0.89,1.54
22.618,1.41,0.10,0.94,1.70
22.628,1.42,0.06,0.75,1.61
22.638,1.27,-0.02,0.43,1.34
22.648,1.06,-0.02,0.00,1.06
22.658,1.00,0.05,-0.33,1.05
22.668,0.95,-0.10,-0.45,1.05
22.678,0.87,-0.27,-0.41,1.00
22.688,0.87,-0.42,-0.33,1.02
22.698,0.94,-0.50,-0.27,1.10
22.709,0.95,-0.56,-0.15,1.11
22.718,0.90,-0.58,-0.05,1.08
22.729,0.93,-0.48,-0.04,1.05
22.739,0.97,-0.40,-0.10,1.06
22.749,1.06,-0.37,-0.12,1.13
22.759,1.16,-0.35,-0.06,1.22
22.769,1.32,-0.31,0.01,1.35
22.779,1.44,-0.30,0.08,1.47
22.789,1.53,-0.39,0.07,1.58
22.799,1.63,-0.42,0.00,1.68
22.809,1.60,-0.33,-0.22,1.65
22.819,1.56,-0.26,-0.64,1.71
22.830,1.52,-0.14,-0.95,1.80
22.839,1.42,0.04,-1.07,1.78
22.850,1.28,0.14,-1.09,1.69
22.860,1.20,0.27,-1.03,1.61
22.870,1.18,0.50,-0.81,1.52
22.880,1.37,0.76,-0.49,1.64
22.890,1.54,1.02,-0.08,1.85
22.900,1.76,1.19,0.34,2.15
22.910,1.86,1.30,0.81,2.41
22.920,1.91,1.24,1.08,2.52
22.930,1.88,1.30,0.88,2.45
22.940,1.57,1.39,0.51,2.16
22.951,1.34,1.35,0.13,1.91
22.960,1.41,1.48,0.09,2.05
22.971,1.68,1.41,0.40,2.23
22.981,2.17,1.36,0.81,2.69
22.991,2.56,1.34,1.08,3.08
23.001,2.69,1.18,1.24,3.18
23.011,2.59,0.93,1.22,3.02
23.021,2.42,0.73,1.05,2.74
23.031,2.20,0.52,0.81,2.40
23.041,1.91,0.24,0.55,2.00
23.051,1.56,-0.06,0.31,1.59
23.061,1.27,-0.40,0.08,1.34
23.071,1.04,-0.67,-0.09,1.24
23.081,0.98,-0.80,-0.22,1.29
23.092,1.07,-0.86,-0.41,1.43
23.101,1.08,-0.88,-0.63,1.53
23.112,1.02,-0.90,-0.90,1.63
23.122,0.91,-0.99,-1.15,1.77
23.132,0.89,-1.00,-1.28,1.85
23.142,0.86,-1.00,-1.25,1.82
23.152,0.84,-1.09,-1.05,1.73
23.162,0.94,-1.12,-0.79,1.66
23.172,1.05,-1.08,-0.57,1.61
23.182,1.12,-0.97,-0.40,1.53
23.192,1.26,-0.89,-0.17,1.55
23.202,1.43,-0.76,0.11,1.63
23.212,1.62,-0.73,0.44,1.83
23.222,1.65,-0.78,0.71,1.95
23.233,1.53,-0.80,0.88,1.94
23.243,1.47,-0.77,0.94,1.91
23.253,1.34,-0.78,1.04,1.87
23.263,1.12,-0.84,1.07,1.76
23.273,0.93,-0.92,1.07,1.69
23.283,0.75,-0.99,1.03,1.61
23.293,0.55,-0.95,0.90,1.42
23.303,0.29,-0.86,0.73,1.16
23.313,0.07,-0.78,0.48,0.92
23.323,-0.05,-0.60,0.15,0.62
23.333,-0.02,-0.30,-0.09,0.31
23.343,0.07,-0.06,-0.26,0.27
23.354,0.14,0.10,-0.33,0.37
23.364,0.19,0.25,-0.55,0.63
23.374,0.14,0.30,-0.83,0.90
23.384,-0.07,0.28,-1.09,1.13
23.394,-0.22,0.20,-1.31,1.34
23.404,-0.25,0.20,-1.42,1.46
23.414,-0.37,0.23,-1.34,1.41
23.424,-0.53,0.21,-1.06,1.21
23.434,-0.72,0.10,-0.57,0.92
23.444,-0.85,-0.16,0.11,0.87
23.454,-0.81,-0.42,0.73,1.17
23.464,-0.81,-0.68,1.22,1.61
23.475,-0.91,-0.90,1.48,1.96
23.485,-1.10,-1.12,1.36,2.08
23.495,-1.44,-1.22,0.91,2.09
23.505,-1.84,-1.21,0.20,2.21
23.515,-2.11,-1.22,-0.49,2.49
23.525,-2.12,-1.13,-0.89,2.57
23.535,-1.75,-0.94,-0.95,2.20
23.545,-1.26,-0.69,-0.80,1.64
23.555,-0.85,-0.59,-0.59,1.19
23.565,-0.64,-0.67,-0.34,0.99
23.575,-0.46,-0.72,-0.14,0.87
23.585,-0.31,-0.63,-0.06,0.70
23.596,-0.31,-0.42,-0.01,0.52
23.606,-0.37,-0.14,-0.03,0.40
23.616,-0.51,0.24,-0.10,0.57
23.626,-0.76,0.63,-0.14,0.99
23.636,-1.01,1.08,-0.14,1.48
23.646,-1.19,1.59,-0.13,1.99
23.656,-1.20,2.24,-0.17,2.54
23.666,-1.07,2.91,-0.05,3.10
23.676,-0.95,3.48,0.27,3.62
23.686,-0.75,3.92,0.62,4.03
23.696,-0.55,4.30,0.77,4.41
23.706,-0.62,4.82,0.49,4.89
23.716,-0.69,4.73,-0.24,4.79
23.726,-0.83,4.24,-0.53,4.35
23.737,-0.98,3.51,-0.15,3.65
23.746,-1.29,2.65,0.06,2.95
23.757,-1.81,1.74,-0.28,2.52
23.767,-2.40,0.99,-0.86,2.73
23.777,-2.92,0.45,-1.40,3.27
23.787,-3.21,0.04,-1.60,3.58
23.797,-3.12,-0.09,-1.61,3.51
23.807,-2.92,-0.08,-1.36,3.22
23.817,-2.58,-0.13,-0.85,2.72
23.827,-2.12,-0.23,-0.26,2.15
23.837,-1.67,-0.33,0.35,1.74
23.847,-1.31,-0.37,0.75,1.55
23.858,-0.98,-0.42,0.79,1.33
23.867,-0.80,-0.45,0.48,1.03
23.878,-0.69,-0.37,0.02,0.78
23.888,-0.60,-0.25,-0.35,0.74
23.898,-0.52,-0.17,-0.47,0.72
23.908,-0.40,-0.22,-0.37,0.58
23.918,-0.33,-0.22,-0.00,0.40
23.928,-0.34,-0.20,0.50,0.64
23.938,-0.30,-0.30,0.89,0.99
23.948,-0.33,-0.40,1.16,1.27
23.958,-0.37,-0.43,1.29,1.41
23.968,-0.41,-0.54,1.20,1.38
23.978,-0.62,-0.67,0.99,1.35
23.988,-0.87,-0.82,0.66,1.37
23.999,-1.07,-0.97,0.29,1.48
24.009,-1.11,-0.96,0.05,1.47
24.019,-1.17,-0.93,-0.00,1.49
24.029,-1.26,-0.97,0.05,1.59
24.039,-1.16,-0.96,0.09,1.51
24.049,-1.00,-0.84,0.16,1.32
24.059,-0.84,-0.68,0.25,1.11
24.069,-0.58,-0.46,0.10,0.75
24.079,-0.44,-0.25,-0.05,0.51
24.089,-0.39,-0.16,-0.22,0.48
24.099,-0.37,-0.08,-0.22,0.43
24.109,-0.23,0.03,-0.06,0.24
24.120,0.07,0.10,0.25,0.28
24.129,0.42,0.06,0.71,0.83
24.140,0.79,-0.03,1.14,1.39
24.150,1.07,-0.12,1.39,1.76
24.160,1.24,-0.19,1.42,1.90
24.170,1.20,-0.20,1.29,1.78
24.180,1.08,-0.11,1.05,1.51
24.190,0.92,-0.06,0.71,1.16
24.200,0.72,-0.05,0.45,0.85
24.210,0.64,-0.03,0.34,0.73
24.221,0.67,-0.01,0.42,0.79
24.230,0.76,-0.05,0.68,1.01
24.241,0.95,-0.13,1.00,1.38
24.250,1.13,-0.21,1.31,1.75
24.261,1.33,-0.26,1.45,1.99
24.271,1.58,-0.30,1.39,2.13
24.281,1.81,-0.25,1.09,2.13
24.291,2.04,-0.14,0.64,2.15
24.301,2.13,-0.04,0.11,2.13
24.311,2.09,-0.12,-0.35,2.12
24.321,2.04,-0.27,-0.55,2.13
24.331,2.09,-0.45,-0.54,2.20
24.341,2.16,-0.63,-0.42,2.29
24.351,2.23,-0.80,-0.33,2.39
24.362,2.17,-1.03,-0.36,2.43
24.371,1.96,-1.22,-0.55,2.37
24.382,1.81,-1.26,-0.68,2.31
24.392,1.78,-1.21,-0.58,2.23
24.402,1.87,-1.16,-0.41,2.23
24.412,2.19,-0.97,-0.15,2.39
24.422,2.53,-0.69,0.11,2.63
24.432,2.85,-0.41,0.20,2.89
24.442,2.84,-0.12,0.18,2.85
24.452,2.51,-0.05,0.01,2.51
24.462,2.16,0.08,-0.19,2.17
24.472,1.86,0.41,-0.25,1.92
24.482,1.70,0.66,-0.12,1.83
24.492,1.71,0.80,0.23,1.91
24.503,1.83,0.87,0.67,2.13
24.513,1.91,0.85,0.94,2.29
24.523,2.05,0.79,1.00,2.41
24.533,2.09,0.72,0.82,2.36
24.543,2.21,0.75,0.38,2.36
24.553,2.33,0.79,-0.19,2.47
24.563,2.41,0.83,-0.63,2.63
24.573,2.42,0.86,-0.82,2.70
24.583,2.39,0.83,-0.84,2.67
24.593,2.18,0.74,-0.69,2.40
24.603,2.06,0.66,-0.29,2.19
24.613,1.94,0.56,0.30,2.04
24.624,1.97,0.45,0.92,2.22
24.634,1.99,0.41,1.43,2.48
24.644,1.81,0.29,1.64,2.46
24.654,1.66,0.19,1.61,2.32
24.664,1.58,0.19,1.43,2.13
24.674,1.38,0.22,1.10,1.78
24.684,1.03,0.16,0.76,1.30
24.694,0.74,-0.01,0.39,0.83
24.704,0.60,-0.12,0.08,0.62
24.714,0.52,-0.20,-0.25,0.61
24.724,0.42,-0.28,-0.46,0.68
24.734,0.33,-0.45,-0.50,0.75
24.745,0.28,-0.58,-0.42,0.76
24.755,0.33,-0.72,-0.28,0.84
24.765,0.30,-0.80,-0.17,0.87
24.775,0.22,-0.80,-0.12,0.84
24.785,0.21,-0.72,-0.10,0.76
24.795,0.19,-0.68,-0.17,0.73
24.805,0.06,-0.68,-0.32,0.75
24.815,-0.19,-0.65,-0.56,0.88
24.825,-0.29,-0.66,-0.65,0.97
24.835,-0.19,-0.59,-0.43,0.75
24.845,-0.05,-0.48,-0.18,0.52
24.855,0.06,-0.37,-0.13,0.40
24.865,-0.03,-0.25,-0.30,0.39
24.875,-0.22,-0.11,-0.58,0.63
24.886,-0.32,0.10,-0.72,0.80
24.896,-0.37,0.39,-0.69,0.88
24.906,-0.36,0.61,-0.57,0.91
24.916,-0.46,0.68,-0.50,0.96
24.926,-0.62,0.64,-0.41,0.98
24.936,-0.74,0.53,-0.24,0.94
24.946,-0.82,0.41,-0.06,0.92
24.956,-1.00,0.36,0.00,1.06
24.966,-1.39,0.28,-0.05,1.42
24.976,-1.76,0.18,-0.10,1.78
24.986,-2.03,0.12,-0.09,2.03
24.996,-2.14,0.20,0.04,2.15
25.006,-2.14,0.30,0.26,2.18
25.017,-2.10,0.37,0.45,2.18
25.027,-2.07,0.38,0.61,2.19
25.037,-2.04,0.37,0.74,2.20
25.047,-2.00,0.48,0.69,2.17
25.057,-1.98,0.63,0.46,2.12
25.067,-1.84,0.80,0.15,2.01
25.077,-1.67,1.03,-0.08,1.96
25.087,-1.54,1.15,-0.18,1.93
25.097,-1.45,1.05,-0.16,1.80
25.107,-1.41,0.89,0.00,1.67
25.117,-1.37,0.71,0.25,1.56
25.128,-1.40,0.47,0.53,1.57
25.138,-1.58,0.25,0.74,1.76
25.148,-1.74,0.11,0.92,1.97
25.158,-1.89,0.03,0.98,2.12
25.168,-1.99,0.00,0.94,2.20
25.178,-2.02,0.05,0.85,2.20
25.188,-1.96,0.15,0.76,2.10
25.198,-1.79,0.30,0.72,1.95
25.208,-1.51,0.50,0.78,1.77
25.218,-1.13,0.71,0.82,1.56
25.228,-0.94,0.95,0.75,1.53
25.238,-0.99,1.21,0.42,1.62
25.249,-1.26,1.46,-0.09,1.94
25.258,-1.64,1.78,-0.52,2.47
25.269,-1.82,2.20,-0.84,2.98
25.279,-1.88,2.47,-0.96,3.25
25.289,-1.81,2.51,-0.77,3.19
25.299,-1.67,2.36,-0.32,2.91
25.309,-1.68,2.05,0.13,2.65
25.319,-1.83,1.51,0.42,2.41
25.329,-2.08,0.93,0.62,2.36
25.339,-2.17,0.46,0.65,2.31
25.349,-2.05,0.12,0.56,2.13
25.359,-1.98,0.02,0.40,2.02
25.369,-1.71,-0.09,0.01,1.72
25.379,-1.56,0.03,-0.43,1.62
25.390,-1.60,0.19,-0.89,1.85
25.400,-1.92,0.31,-1.31,2.35
25.410,-2.30,0.33,-1.66,2.85
25.420,-2.48,0.41,-1.64,3.00
25.430,-2.35,0.44,-1.23,2.69
25.440,-2.12,0.35,-0.38,2.18
25.450,-1.87,0.21,0.56,1.96
25.460,-1.62,0.08,1.25,2.05
25.470,-1.30,-0.08,1.67,2.12
25.480,-1.09,-0.15,1.82,2.13
25.490,-0.93,-0.09,1.64,1.89
25.500,-0.90,-0.08,1.10,1.42
25.511,-0.97,-0.04,0.33,1.03
25.520,-1.05,0.06,-0.37,1.12
25.531,-1.08,0.02,-0.89,1.40
25.541,-1.08,-0.03,-1.06,1.52
25.551,-1.13,-0.07,-0.86,1.42
25.561,-1.10,-0.24,-0.44,1.21
25.571,-1.03,-0.47,0.12,1.14
25.581,-0.99,-0.62,0.60,1.31
25.591,-0.94,-0.72,0.79,1.42
25.601,-0.87,-0.78,0.78,1.41
25.611,-0.83,-0.79,0.66,1.32
25.621,-0.78,-0.78,0.43,1.19
25.632,-0.77,-0.76,0.15,1.09
25.641,-0.67,-0.66,-0.12,0.95
25.652,-0.56,-0.50,-0.32,0.81
25.662,-0.51,-0.41,-0.46,0.80
25.672,-0.48,-0.41,-0.56,0.85
25.682,-0.37,-0.36,-0.50,0.72
25.692,-0.27,-0.24,-0.30,0.47
25.702,-0.22,-0.16,-0.11,0.29
25.712,-0.12,-0.10,0.02,0.15
25.722,0.14,-0.01,0.11,0.18
25.732,0.36,0.13,0.18,0.42
25.742,0.51,0.16,0.37,0.65
25.752,0.73,0.00,0.60,0.94
25.762,0.94,-0.03,0.77,1.21
25.773,1.14,-0.01,0.69,1.33
25.782,1.29,0.15,0.50,1.39
25.793,1.54,0.18,0.06,1.55
25.803,1.69,0.25,-0.35,1.74
25.813,1.82,0.33,-0.52,1.92
25.823,1.98,0.25,-0.50,2.06
25.833,2.03,0.07,-0.16,2.04
25.843,2.08,-0.14,0.22,2.09
25.853,2.16,-0.39,0.44,2.23
25.863,2.10,-0.58,0.62,2.26
25.873,1.88,-0.70,0.54,2.07
25.883,1.62,-0.73,0.22,1.79
25.894,1.48,-0.74,-0.09,1.66
25.904,1.30,-0.71,-0.35,1.53
25.914,1.24,-0.69,-0.58,1.54
25.924,1.32,-0.68,-0.73,1.65
25.934,1.46,-0.65,-0.81,1.79
25.944,1.56,-0.64,-0.82,1.87
25.954,1.50,-0.72,-0.80,1.85
25.964,1.46,-0.80,-0.64,1.78
25.974,1.37,-0.84,-0.52,1.69
25.984,1.21,-0.86,-0.52,1.57
25.995,1.09,-0.70,-0.60,1.43
26.004,1.10,-0.43,-0.61,1.33
26.014,1.15,-0.23,-0.64,1.33
26.024,1.19,-0.01,-0.48,1.29
26.035,1.37,0.25,-0.30,1.43
26.045,1.70,0.61,-0.10,1.81
26.055,2.00,0.88,0.22,2.20
26.065,2.37,1.03,0.62,2.66
26.075,2.55,1.09,0.88,2.91
26.085,2.65,1.05,1.01,3.02
26.095,2.76,1.12,1.00,3.15
26.105,2.63,1.27,0.68,3.00
26.115,2.33,1.27,0.22,2.67
26.125,2.06,1.21,-0.29,2.41
26.136,1.87,1.18,-0.69,2.31
26.146,1.78,1.14,-0.82,2.26
26.156,1.84,0.95,-0.76,2.21
26.166,2.03,0.83,-0.58,2.27
26.176,2.14,0.66,-0.35,2.27
26.186,2.19,0.44,-0.18,2.24
26.196,2.12,0.35,-0.08,2.15
26.206,1.96,0.24,-0.08,1.97
26.216,1.83,0.08,-0.18,1.84
26.226,1.61,-0.02,-0.21,1.62
26.236,1.49,-0.20,-0.14,1.51
26.246,1.49,-0.46,0.06,1.55
26.256,1.57,-0.60,0.28,1.70
26.266,1.68,-0.73,0.49,1.90
26.277,1.81,-0.75,0.66,2.07
26.286,1.88,-0.72,0.52,2.08
26.297,1.74,-0.71,0.36,1.91
26.307,1.50,-0.71,0.09,1.66
26.317,1.26,-0.72,-0.24,1.47
26.327,1.08,-0.61,-0.44,1.31
26.337,0.91,-0.55,-0.54,1.19
26.347,0.75,-0.60,-0.54,1.10
26.357,0.67,-0.60,-0.34,0.96
26.367,0.64,-0.54,-0.08,0.84
26.377,0.72,-0.53,0.20,0.92
26.387,0.83,-0.51,0.36,1.03
26.397,0.95,-0.45,0.42,1.13
26.407,0.97,-0.42,0.44,1.14
26.418,0.93,-0.33,0.35,1.05
26.428,0.83,-0.28,0.14,0.89
26.438,0.72,-0.30,-0.07,0.78
26.448,0.66,-0.22,-0.16,0.71
26.458,0.60,-0.16,-0.09,0.63
26.468,0.55,-0.21,0.07,0.59
26.478,0.48,-0.26,0.25,0.60
26.488,0.48,-0.29,0.39,0.69
26.498,0.53,-0.26,0.42,0.73
26.508,0.47,-0.20,0.30,0.59
26.518,0.30,-0.18,0.09,0.36
26.528,0.03,-0.19,-0.16,0.25
26.539,-0.29,-0.18,-0.50,0.61
26.548,-0.54,-0.15,-0.93,1.09
26.559,-0.84,0.04,-1.23,1.49
26.569,-1.11,0.22,-1.41,1.81
26.579,-1.22,0.35,-1.45,1.93
26.589,-1.20,0.39,-1.16,1.71
26.599,-1.18,0.40,-0.64,1.40
26.609,-1.29,0.33,-0.09,1.34
26.619,-1.39,0.21,0.37,1.46
26.629,-1.35,0.19,0.74,1.55
26.639,-1.36,0.18,0.95,1.67
26.649,-1.45,0.10,0.95,1.73
26.660,-1.56,-0.09,0.84,1.77
26.670,-1.66,-0.21,0.79,1.85
26.680,-1.64,-0.30,0.86,1.87
26.690,-1.51,-0.37,0.96,1.83
26.700,-1.36,-0.46,1.02,1.77
26.710,-1.31,-0.59,0.99,1.74
26.720,-1.32,-0.64,0.89,1.72
26.730,-1.39,-0.71,0.70,1.71
26.740,-1.58,-0.83,0.43,1.84
26.750,-1.79,-0.90,0.19,2.02
26.760,-1.86,-0.88,-0.01,2.06
26.770,-1.87,-0.76,-0.09,2.02
26.781,-1.83,-0.63,-0.02,1.93
26.790,-1.75,-0.47,0.04,1.81
26.801,-1.72,-0.24,0.20,1.75
26.811,-1.60,-0.06,0.49,1.67
26.821,-1.49,-0.03,0.85,1.72
26.831,-1.34,0.03,1.12,1.75
26.841,-1.25,0.24,1.20,1.74
26.851,-1.19,0.50,1.00,1.64
26.861,-1.23,0.79,0.59,1.58
26.871,-1.33,1.26,0.14,1.84
26.881,-1.34,1.79,-0.16,2.24
26.891,-1.27,2.18,-0.25,2.53
26.902,-1.22,2.41,-0.25,2.71
26.911,-1.14,2.50,-0.15,2.75
26.922,-1.03,2.46,-0.04,2.67
26.932,-0.97,2.38,0.04,2.57
26.942,-0.99,2.31,0.17,2.52
26.952,-1.11,2.16,0.39,2.46
26.962,-1.34,2.01,0.51,2.46
26.972,-1.60,1.91,0.59,2.56
26.982,-1.83,1.85,0.66,2.68
26.992,-2.03,1.70,0.80,2.77
27.002,-2.16,1.49,0.99,2.81
27.012,-2.19,1.25,1.17,2.78
27.022,-2.11,0.94,1.26,2.63
27.032,-1.97,0.62,1.37,2.48
27.043,-1.88,0.31,1.42,2.38
27.052,-1.60,0.08,1.48,2.18
27.063,-1.13,-0.09,1.48,1.87
27.073,-0.78,-0.21,1.39,1.61
27.083,-0.65,-0.26,1.16,1.36
27.093,-0.66,-0.29,0.68,0.99
27.103,-0.67,-0.25,0.23,0.75
27.113,-0.64,-0.29,0.01,0.70
27.123,-0.48,-0.34,-0.01,0.59
27.133,-0.22,-0.36,0.20,0.46
27.144,0.12,-0.43,0.39,0.59
27.153,0.46,-0.54,0.43,0.83
27.163,0.68,-0.63,0.33,0.99
27.173,0.76,-0.70,0.07,1.03
27.184,0.56,-0.67,-0.37,0.95
27.194,0.18,-0.68,-0.77,1.05
27.204,-0.32,-0.77,-1.06,1.35
27.214,-0.65,-0.78,-1.20,1.57
27.224,-0.88,-0.63,-1.22,1.63
27.234,-0.98,-0.45,-1.27,1.66
27.244,-1.12,-0.35,-1.36,1.79
27.254,-1.37,-0.27,-1.40,1.98
27.264,-1.53,-0.22,-1.30,2.02
27.274,-1.52,-0.16,-1.06,1.86
27.285,-1.41,-0.08,-0.68,1.56
27.294,-1.30,-0.01,-0.17,1.32
27.305,-1.08,0.15,0.36,1.15
27.314,-0.87,0.27,0.80,1.22
27.325,-0.61,0.28,1.03,1.23
27.335,-0.36,0.31,1.16,1.25
27.345,-0.20,0.36,1.23,1.29
27.355,-0.05,0.38,1.17,1.24
27.365,0.17,0.38,1.01,1.10
27.375,0.27,0.42,0.69,0.85
27.385,0.29,0.43,0.26,0.58
27.395,0.37,0.42,-0.18,0.59
27.405,0.47,0.45,-0.48,0.81
27.415,0.50,0.43,-0.69,0.95
27.426,0.56,0.36,-0.78,1.02
27.436,0.72,0.30,-0.72,1.06
27.446,0.98,0.22,-0.48,1.12
27.456,1.37,0.06,-0.08,1.37
27.466,1.59,-0.17,0.28,1.63
27.476,1.67,-0.47,0.53,1.81
27.486,1.79,-0.80,0.66,2.07
27.496,1.80,-0.97,0.60,2.13
27.506,1.66,-1.04,0.29,1.98
27.516,1.45,-1.14,-0.22,1.86
27.526,1.30,-1.19,-0.68,1.89
27.536,1.39,-1.05,-0.99,2.00
27.546,1.52,-0.87,-1.08,2.05
27.556,1.67,-0.80,-1.01,2.11
27.567,1.75,-0.79,-0.92,2.12
27.577,1.73,-0.76,-0.70,2.01
27.587,1.76,-0.73,-0.55,1.98
27.597,1.82,-0.77,-0.52,2.04
27.607,1.95,-0.58,-0.45,2.09
27.617,1.99,-0.37,-0.45,2.07
27.627,1.89,-0.01,-0.78,2.05
27.637,1.67,0.51,-1.40,2.24
27.647,1.39,0.94,-1.97,2.59
27.657,1.39,1.31,-2.21,2.92
27.668,1.55,1.73,-1.93,3.02
27.677,1.82,1.86,-1.18,2.85
27.688,2.16,1.70,-0.36,2.77
27.698,2.38,1.50,0.29,2.83
27.708,2.34,1.42,0.74,2.84
27.718,2.12,1.39,0.85,2.67
27.728,1.70,1.43,0.73,2.33
27.738,1.26,1.50,0.34,1.99
27.748,1.02,1.44,-0.05,1.77
27.758,0.91,1.42,-0.14,1.69
27.768,1.12,1.38,0.11,1.78
27.778,1.69,1.22,0.49,2.14
27.788,2.28,1.11,0.95,2.71
27.798,2.56,0.74,1.17,2.91
27.809,2.64,0.17,1.23,2.91
27.819,2.43,-0.27,1.09,2.68
27.829,2.11,-0.61,0.73,2.32
27.839,1.80,-0.85,0.29,2.01
27.849,1.48,-0.98,-0.18,1.79
27.859,1.25,-1.03,-0.57,1.71
27.869,1.03,-1.10,-0.85,1.73
27.879,0.88,-1.20,-1.06,1.83
27.889,0.74,-1.19,-1.19,1.84
27.899,0.76,-1.20,-1.18,1.84
27.909,0.88,-1.24,-0.98,1.80
27.919,1.00,-1.23,-0.75,1.76
27.930,1.08,-1.20,-0.64,1.73
27.939,1.13,-1.09,-0.65,1.70
27.950,1.07,-0.98,-0.69,1.61
27.960,0.97,-0.94,-0.68,1.52
27.970,0.93,-0.94,-0.66,1.47
27.980,0.90,-0.85,-0.59,1.37
27.990,0.90,-0.75,-0.50,1.27
28.000,0.85,-0.69,-0.33,1.15
28.010,0.85,-0.63,-0.21,1.08
28.020,0.81,-0.62,-0.04,1.03
28.030,0.75,-0.63,0.18,0.99
28.040,0.65,-0.57,0.29,0.91
28.050,0.67,-0.50,0.28,0.88
28.060,0.62,-0.44,0.16,0.77
28.071,0.46,-0.41,0.02,0.62
28.081,0.28,-0.47,-0.16,0.57
28.091,0.14,-0.47,-0.42,0.65
28.101,0.10,-0.43,-0.66,0.79
28.111,0.09,-0.40,-0.83,0.93
28.121,0.07,-0.29,-1.04,1.08
28.131,0.05,-0.07,-1.27,1.27
28.141,0.09,0.16,-1.44,1.46
28.151,0.12,0.30,-1.48,1.51
28.161,0.11,0.37,-1.29,1.35
28.171,0.09,0.41,-0.97,1.06
28.181,0.05,0.33,-0.60,0.68
28.192,-0.20,0.06,-0.21,0.30
28.202,-0.47,-0.26,0.18,0.56
28.212,-0.69,-0.52,0.60,1.05
28.222,-0.91,-0.73,0.86,1.45
28.232,-1.17,-0.87,0.90,1.72
28.242,-1.37,-0.90,0.83,1.84
28.252,-1.41,-0.90,0.75,1.83
28.262,-1.37,-0.86,0.68,1.76
28.272,-1.40,-0.80,0.68,1.75
28.282,-1.39,-0.76,0.66,1.72
28.292,-1.32,-0.72,0.60,1.62
28.302,-1.27,-0.68,0.42,1.50
28.313,-1.36,-0.66,0.14,1.51
28.322,-1.56,-0.62,-0.25,1.69
28.333,-1.71,-0.54,-0.49,1.86
28.343,-1.84,-0.38,-0.58,1.97
28.353,-1.94,-0.15,-0.56,2.02
28.363,-1.95,0.07,-0.40,1.99
28.373,-1.88,0.21,-0.22,1.90
28.383,-1.78,0.30,0.03,1.81
28.393,-1.62,0.36,0.31,1.68
28.403,-1.54,0.46,0.40,1.66
28.413,-1.54,0.75,0.20,1.72
28.423,-1.55,1.37,-0.11,2.07
28.434,-1.50,2.08,-0.24,2.57
28.443,-1.35,2.62,-0.26,2.96
28.454,-1.16,3.12,0.03,3.33
28.464,-0.85,3.56,0.76,3.73
28.474,-0.28,3.89,1.59,4.21
28.484,0.29,4.13,2.25,4.71
28.494,0.64,4.15,2.71,5.00
28.504,0.77,3.90,2.96,4.96
28.514,0.63,3.54,2.91,4.63
28.524,0.23,3.08,2.52,3.98
28.534,-0.37,2.64,2.07,3.37
28.544,-1.01,2.21,1.63,2.92
28.555,-1.54,1.71,1.22,2.60
28.564,-2.04,1.22,0.94,2.56
28.575,-2.35,0.89,0.71,2.61
28.585,-2.39,0.67,0.62,2.56
28.595,-2.34,0.48,0.58,2.45
28.605,-2.18,0.30,0.44,2.24
28.615,-2.04,0.18,0.39,2.08
28.625,-1.79,0.09,0.39,1.83
28.635,-1.54,0.07,0.44,1.61
28.645,-1.27,0.01,0.56,1.39
28.655,-1.13,-0.13,0.67,1.32
28.665,-1.04,-0.27,0.66,1.26
28.675,-1.04,-0.50,0.58,1.30
28.685,-1.14,-0.64,0.49,1.40
28.696,-1.27,-0.80,0.30,1.53
28.706,-1.30,-0.94,0.14,1.61
28.716,-1.34,-0.93,0.01,1.64
28.726,-1.39,-0.99,-0.15,1.71
28.736,-1.42,-0.99,-0.34,1.76
28.746,-1.35,-0.94,-0.45,1.70
28.756,-1.11,-0.91,-0.49,1.52
28.766,-1.04,-0.85,-0.54,1.45
28.776,-1.06,-0.78,-0.54,1.42
28.786,-1.24,-0.75,-0.50,1.54
28.796,-1.41,-0.81,-0.41,1.68
28.806,-1.45,-0.89,-0.16,1.71
28.816,-1.38,-0.86,0.13,1.63
28.826,-1.36,-0.76,0.29,1.59
28.837,-1.32,-0.72,0.31,1.53
28.847,-1.25,-0.66,0.19,1.43
28.857,-1.26,-0.51,-0.04,1.36
28.867,-1.11,-0.21,-0.28,1.17
28.877,-0.99,0.05,-0.51,1.12
28.887,-0.90,0.16,-0.67,1.13
28.897,-0.74,0.18,-0.62,0.98
28.907,-0.63,0.17,-0.44,0.79
28.917,-0.45,0.15,-0.18,0.51
28.927,-0.24,0.11,0.06,0.27
28.937,-0.08,0.03,0.25,0.26
28.947,0.19,-0.05,0.38,0.43
28.958,0.52,-0.05,0.60,0.80
28.968,0.84,0.00,0.77,1.14
28.978,1.18,0.01,0.79,1.42
28.988,1.48,0.04,0.75,1.66
28.998,1.61,-0.01,0.65,1.73
29.008,1.64,-0.04,0.47,1.70
29.018,1.54,-0.13,0.32,1.58
29.028,1.47,-0.29,0.18,1.51
29.038,1.43,-0.42,-0.05,1.49
29.048,1.48,-0.43,-0.19,1.55
29.058,1.55,-0.50,-0.27,1.65
29.068,1.59,-0.71,-0.30,1.76
29.079,1.69,-0.93,-0.35,1.96
29.088,1.75,-1.08,-0.25,2.07
29.099,1.84,-1.26,-0.19,2.24
29.109,1.86,-1.37,-0.20,2.32
29.119,1.90,-1.39,-0.31,2.37
29.129,1.92,-1.32,-0.52,2.38
29.139,1.84,-1.27,-0.75,2.36
29.149,1.75,-1.19,-0.95,2.32
29.159,1.71,-1.11,-1.05,2.29
29.169,1.68,-1.08,-1.00,2.23
29.179,1.72,-1.04,-0.78,2.16
29.189,1.84,-0.92,-0.51,2.12
29.200,2.00,-0.75,-0.17,2.14
29.209,2.29,-0.50,0.11,2.35
29.220,2.61,-0.19,0.27,2.63
29.230,2.96,0.26,0.44,3.00
29.240,3.44,0.86,0.38,3.57
29.250,3.76,1.50,0.21,4.05
29.260,4.13,1.88,-0.06,4.54
29.270,4.39,1.98,-0.22,4.82
29.280,4.47,1.76,-0.32,4.81
29.290,4.39,1.42,-0.35,4.63
29.300,4.13,1.05,-0.31,4.27
29.310,3.85,0.72,-0.18,3.92
29.320,3.53,0.43,0.03,3.56
29.330,3.18,0.25,0.26,3.20
29.341,2.93,0.05,0.41,2.96
29.350,2.62,-0.20,0.40,2.65
29.361,2.27,-0.37,0.21,2.31
29.371,1.99,-0.47,-0.20,2.05
29.381,1.74,-0.57,-0.67,1.95
29.391,1.44,-0.69,-1.08,1.93
29.401,1.13,-0.85,-1.45,2.02
29.411,1.00,-0.99,-1.63,2.15
29.421,0.93,-1.03,-1.64,2.14
29.431,0.91,-1.06,-1.50,2.05
29.441,0.96,-1.11,-1.32,1.97
29.451,1.03,-1.13,-1.05,1.85
29.462,1.06,-1.13,-0.80,1.74
29.472,1.04,-1.10,-0.59,1.63
29.482,0.98,-1.09,-0.40,1.52
29.492,0.93,-1.08,-0.23,1.45
29.502,0.87,-0.96,0.02,1.30
29.512,0.89,-0.83,0.22,1.23
29.522,1.01,-0.77,0.27,1.30
29.532,1.01,-0.68,0.27,1.25
29.542,0.89,-0.64,0.24,1.12
29.552,0.88,-0.64,0.09,1.10
29.562,0.76,-0.55,-0.08,0.94
29.572,0.65,-0.48,-0.18,0.82
29.583,0.47,-0.38,-0.18,0.63
29.592,0.31,-0.32,-0.12,0.46
29.603,0.14,-0.26,-0.08,0.31
29.613,0.04,-0.18,-0.09,0.21
29.623,-0.07,-0.01,-0.14,0.16
29.633,-0.17,0.20,-0.20,0.33
29.643,-0.17,0.37,-0.27,0.50
29.653,-0.15,0.55,-0.36,0.67
29.663,0.07,0.69,-0.40,0.80
29.673,0.29,0.82,-0.48,0.99
29.683,0.40,0.92,-0.66,1.20
29.693,0.41,1.02,-0.86,1.40
29.704,0.33,1.08,-1.01,1.51
29.713,0.20,1.09,-1.16,1.61
29.724,-0.02,1.12,-1.12,1.58
29.734,-0.35,1.02,-0.92,1.41
29.744,-0.56,0.87,-0.61,1.20
29.754,-0.71,0.76,-0.16,1.05
29.764,-0.80,0.67,0.28,1.08
29.774,-0.89,0.52,0.63,1.20
29.784,-0.93,0.34,0.96,1.38
29.794,-1.01,0.15,1.24,1.61
29.804,-1.10,-0.01,1.42,1.80
29.814,-1.19,-0.09,1.48,1.90
29.824,-1.23,-0.09,1.34,1.83
29.834,-1.27,-0.12,1.13,1.71
29.845,-1.30,-0.17,0.91,1.60
29.855,-1.35,-0.25,0.74,1.56
29.865,-1.43,-0.37,0.65,1.61
29.875,-1.50,-0.48,0.64,1.70
29.885,-1.57,-0.55,0.59,1.77
29.895,-1.67,-0.56,0.54,1.84
29.905,-1.71,-0.62,0.52,1.89
29.915,-1.73,-0.67,0.43,1.90
29.925,-1.73,-0.67,0.35,1.89
29.935,-1.70,-0.55,0.31,1.81
29.945,-1.68,-0.37,0.33,1.75
29.955,-1.58,-0.09,0.38,1.63
29.966,-1.45,0.24,0.49,1.55
29.975,-1.34,0.51,0.66,1.58
29.986,-1.32,0.70,0.89,1.73
29.996,-1.35,0.85,1.18,1.99
30.006,-1.43,0.96,1.48,2.27
30.016,-1.50,1.10,1.68,2.51
30.026,-1.56,1.26,1.85,2.73
30.036,-1.59,1.48,1.88,2.88
30.046,-1.60,1.74,1.77,2.95
30.056,-1.63,2.11,1.50,3.06
30.066,-1.73,2.49,1.17,3.25
30.076,-1.89,2.73,0.82,3.42
30.087,-1.93,2.90,0.53,3.53
30.096,-1.86,2.99,0.43,3.54
30.107,-1.80,2.97,0.48,3.51
30.117,-1.69,2.73,0.74,3.29
30.127,-1.53,2.37,1.17,3.05
30.137,-1.36,2.01,1.58,2.89
30.147,-1.23,1.63,1.88,2.77
30.157,-1.17,1.21,1.96,2.58
30.167,-1.21,0.84,1.80,2.33
30.177,-1.29,0.54,1.43,2.00
30.187,-1.42,0.30,0.99,1.76
30.197,-1.47,0.17,0.51,1.56
30.208,-1.46,0.09,0.10,1.47
30.217,-1.52,0.02,-0.20,1.53
30.228,-1.46,-0.11,-0.29,1.50
30.237,-1.34,-0.30,-0.11,1.37
30.248,-1.23,-0.55,0.16,1.36
30.258,-1.13,-0.74,0.38,1.40
30.268,-1.03,-0.88,0.57,1.47
30.278,-0.99,-1.01,0.67,1.56
30.288,-0.96,-1.04,0.64,1.55
30.298,-1.01,-0.97,0.47,1.48
30.308,-1.04,-0.94,0.16,1.41
30.318,-1.04,-0.93,-0.14,1.41
30.328,-1.05,-0.94,-0.44,1.47
30.338,-0.93,-0.88,-0.68,1.45
30.349,-0.79,-0.71,-0.77,1.31
30.358,-0.73,-0.57,-0.70,1.16
30.369,-0.65,-0.53,-0.49,0.97
30.379,-0.55,-0.58,-0.12,0.81
30.389,-0.55,-0.59,0.30,0.86
30.399,-0.58,-0.56,0.59,1.00
30.409,-0.51,-0.51,0.75,1.04
30.419,-0.45,-0.34,0.80,0.98
30.429,-0.35,-0.18,0.81,0.90
30.439,-0.36,-0.07,0.65,0.75
30.449,-0.46,0.04,0.41,0.62
30.459,-0.53,0.12,0.14,0.56
30.469,-0.52,0.17,-0.05,0.55
30.479,-0.33,0.25,-0.11,0.43
30.490,-0.20,0.38,-0.12,0.45
30.500,-0.10,0.33,0.02,0.35
30.510,0.08,0.12,0.29,0.33
30.520,0.29,-0.12,0.66,0.73
30.530,0.62,-0.37,1.00,1.23
30.540,0.96,-0.54,1.14,1.59
30.550,1.26,-0.61,1.14,1.81
30.560,1.46,-0.66,0.96,1.87
30.570,1.51,-0.60,0.52,1.70
30.580,1.50,-0.56,0.09,1.60
30.590,1.37,-0.63,-0.27,1.53
30.600,1.20,-0.73,-0.50,1.49
30.611,1.09,-0.81,-0.57,1.48
30.621,1.21,-0.95,-0.41,1.59
30.631,1.29,-1.13,-0.11,1.72
30.641,1.37,-1.31,0.12,1.90
30.651,1.34,-1.44,0.20,1.97
30.661,1.27,-1.56,0.07,2.01
30.671,1.11,-1.63,-0.17,1.98
30.681,0.96,-1.72,-0.39,2.01
30.691,0.85,-1.74,-0.58,2.02
30.701,0.78,-1.67,-0.81,2.02
30.711,0.77,-1.53,-0.95,1.95
30.721,0.79,-1.33,-0.93,1.81
30.732,0.88,-1.17,-0.87,1.70
30.742,1.24,-0.97,-0.67,1.71
30.752,1.59,-0.74,-0.33,1.78
30.762,1.83,-0.54,0.02,1.91
30.772,2.04,-0.34,0.35,2.10
30.782,2.13,-0.09,0.54,2.20
30.792,2.32,0.26,0.61,2.42
30.802,2.60,0.72,0.59,2.76
30.812,2.88,1.23,0.49,3.17
30.822,3.11,1.68,0.38,3.56
30.832,3.33,1.91,0.21,3.85
30.842,3.46,2.03,0.09,4.02
30.853,3.51,2.02,0.02,4.05
30.862,3.44,1.94,-0.01,3.95
30.873,3.28,1.91,-0.03,3.79
30.883,3.05,1.88,0.00,3.58
30.893,2.76,1.80,0.10,3.30
30.903,2.60,1.58,0.18,3.05
30.913,2.46,1.37,0.30,2.83
30.923,2.41,1.09,0.39,2.67
30.933,2.51,0.75,0.54,2.68
30.943,2.59,0.48,0.65,2.72
30.953,2.46,0.22,0.63,2.55
30.963,2.20,-0.15,0.54,2.27
30.974,2.00,-0.54,0.48,2.13
30.983,1.86,-0.67,0.52,2.05
30.994,1.75,-0.76,0.54,1.99
31.004,1.58,-0.99,0.48,1.92
31.014,1.36,-1.18,0.31,1.82
31.024,1.15,-1.30,0.04,1.74
31.034,0.92,-1.40,-0.23,1.69
31.044,0.72,-1.51,-0.54,1.76
31.054,0.60,-1.52,-0.76,1.80
31.064,0.59,-1.49,-0.84,1.81
31.074,0.61,-1.44,-0.86,1.78
31.084,0.65,-1.28,-0.84,1.66
31.094,0.65,-1.17,-0.83,1.58
31.104,0.68,-1.17,-0.85,1.60
31.115,0.67,-1.14,-0.83,1.56
31.125,0.63,-1.09,-0.76,1.47
31.135,0.69,-1.10,-0.58,1.42
31.145,0.77,-1.01,-0.44,1.35
31.155,0.80,-0.89,-0.29,1.23
31.165,0.83,-0.77,-0.13,1.14
31.175,0.92,-0.68,0.14,1.16
31.185,1.14,-0.63,0.50,1.39
31.195,1.23,-0.60,0.75,1.56
31.205,1.09,-0.71,0.81,1.54
31.215,0.82,-0.85,0.70,1.37
31.225,0.48,-0.92,0.46,1.13
31.235,0.13,-0.93,0.16,0.95
31.246,-0.15,-0.89,-0.13,0.91
31.256,-0.35,-0.66,-0.37,0.84
31.266,-0.58,-0.39,-0.43,0.82
31.276,-0.75,-0.18,-0.48,0.91
31.286,-0.81,0.06,-0.55,0.98
31.296,-0.66,0.32,-0.54,0.91
31.306,-0.43,0.48,-0.45,0.79
31.316,-0.21,0.54,-0.25,0.63
31.326,-0.06,0.53,0.03,0.53
31.336,-0.01,0.54,0.31,0.62
31.346,-0.02,0.51,0.54,0.74
31.356,-0.41,0.42,0.61,0.85
31.366,-1.00,0.29,0.71,1.26
31.377,-1.61,0.11,0.74,1.77
31.387,-2.03,-0.01,0.71,2.15
31.397,-2.28,-0.05,0.65,2.37
31.407,-2.30,0.04,0.59,2.37
31.417,-2.09,0.20,0.57,2.17
31.427,-1.71,0.33,0.48,1.80
31.437,-1.37,0.42,0.30,1.46
31.447,-1.17,0.51,0.05,1.28
31.457,-1.05,0.57,-0.27,1.23
31.467,-0.98,0.60,-0.54,1.27
31.478,-0.92,0.65,-0.75,1.35
31.487,-0.92,0.63,-0.89,1.43
31.498,-0.90,0.53,-0.91,1.39
31.508,-0.87,0.46,-0.67,1.19
31.518,-0.89,0.36,-0.30,1.01
31.528,-0.98,0.18,0.05,1.00
31.538,-1.14,-0.01,0.28,1.17
31.548,-1.31,-0.17,0.40,1.38
31.558,-1.40,-0.15,0.37,1.46
31.568,-1.59,-0.04,0.21,1.60
31.578,-1.70,0.08,-0.03,1.71
31.588,-1.74,0.22,-0.20,1.76
31.598,-1.68,0.43,-0.24,1.75
31.608,-1.60,0.61,-0.14,1.72
31.619,-1.46,0.73,0.03,1.63
31.628,-1.32,0.90,0.21,1.61
31.639,-1.39,1.04,0.35,1.77
31.649,-1.60,0.97,0.31,1.90
31.659,-1.92,0.95,0.23,2.15
31.669,-2.23,1.16,0.29,2.53
31.679,-2.47,1.10,0.08,2.70
31.689,-2.80,1.26,-0.06,3.07
31.699,-3.05,1.47,-0.17,3.39
31.709,-3.24,1.80,-0.22,3.72
31.719,-3.35,2.00,-0.29,3.91
31.729,-3.18,2.21,-0.19,3.88
31.740,-2.79,2.46,0.21,3.73
31.749,-2.36,2.59,0.75,3.58
31.760,-1.89,2.35,1.22,3.26
31.770,-1.47,2.10,1.57,3.01
31.780,-1.07,1.69,1.81,2.70
31.790,-0.82,1.21,2.01,2.49
31.800,-0.77,0.83,2.12,2.40
31.810,-0.71,0.54,1.96,2.15
31.820,-0.76,0.31,1.49,1.71
31.830,-1.01,0.18,0.89,1.36
31.840,-1.15,0.10,0.35,1.20
31.850,-1.17,0.08,-0.01,1.18
31.861,-1.13,0.05,-0.24,1.15
31.871,-1.02,-0.18,-0.35,1.09
31.881,-0.89,-0.46,-0.27,1.04
31.890,-0.73,-0.75,-0.15,1.06
31.901,-0.57,-0.99,-0.05,1.14
31.911,-0.51,-1.17,-0.09,1.28
31.921,-0.64,-1.32,-0.18,1.48
31.931,-0.81,-1.35,-0.31,1.60
31.941,-0.95,-1.27,-0.38,1.64
31.951,-1.13,-1.20,-0.43,1.71
31.961,-1.21,-1.11,-0.50,1.71
31.971,-1.12,-1.02,-0.45,1.58
31.981,-1.03,-0.88,-0.27,1.38
31.991,-0.87,-0.79,-0.08,1.18
32.001,-0.70,-0.68,0.13,0.99
32.011,-0.62,-0.56,0.30,0.88
32.022,-0.55,-0.51,0.34,0.82
32.032,-0.60,-0.40,0.32,0.79
32.042,-0.74,-0.27,0.25,0.83
32.052,-0.84,-0.12,0.14,0.86
32.062,-0.84,0.10,0.15,0.86
32.072,-0.78,0.33,0.28,0.89
32.082,-0.71,0.41,0.40,0.92
32.092,-0.62,0.41,0.41,0.85
32.102,-0.51,0.38,0.41,0.76
32.112,-0.41,0.37,0.51,0.75
32.122,-0.21,0.31,0.63,0.73
32.132,0.04,0.28,0.73,0.78
32.143,0.20,0.27,0.79,0.86
32.153,0.33,0.21,0.75,0.84
32.163,0.48,0.14,0.57,0.76
32.173,0.59,0.14,0.30,0.68
32.183,0.64,0.12,-0.01,0.65
32.193,0.69,0.07,-0.21,0.73
32.203,0.79,-0.01,-0.31,0.85
32.213,0.95,-0.08,-0.16,0.97
32.223,1.14,-0.23,0.10,1.17
32.233,1.32,-0.45,0.37,1.44
32.243,1.30,-0.65,0.49,1.54
32.253,1.26,-0.90,0.54,1.64
32.264,1.12,-1.17,0.50,1.69
32.273,0.98,-1.33,0.29,1.68
32.284,0.90,-1.39,-0.01,1.66
32.294,0.92,-1.43,-0.41,1.75
32.304,0.94,-1.43,-0.78,1.89
32.314,1.00,-1.37,-1.10,2.02
32.324,1.00,-1.21,-1.41,2.11
32.334,1.06,-1.14,-1.58,2.22
32.344,1.15,-1.04,-1.65,2.26
32.354,1.36,-0.91,-1.59,2.28
32.364,1.55,-0.78,-1.34,2.19
32.374,1.75,-0.69,-1.00,2.13
32.385,2.01,-0.65,-0.69,2.22
32.395,2.31,-0.52,-0.47,2.42
32.405,2.57,-0.30,-0.41,2.62
32.415,2.59,-0.03,-0.53,2.64
32.425,2.35,0.16,-0.81,2.49
32.435,2.20,0.32,-1.13,2.49
32.445,2.22,0.60,-1.11,2.55
32.455,2.48,0.92,-0.76,2.75
32.465,2.83,1.27,-0.30,3.12
32.475,3.03,1.41,0.23,3.35
32.485,3.20,1.40,0.66,3.56
32.495,3.35,1.37,1.07,3.77
32.506,3.45,1.37,1.36,3.95
32.515,3.49,1.36,1.57,4.06
32.526,3.41,1.28,1.66,4.00
32.536,3.50,1.22,1.68,4.07
32.546,3.68,1.16,1.77,4.24
32.556,3.75,0.98,1.87,4.30
32.566,3.75,0.70,1.76,4.20
32.576,3.61,0.41,1.46,3.91
32.586,3.35,0.15,1.08,3.53
32.596,3.00,-0.13,0.69,3.08
32.606,2.68,-0.39,0.28,2.72
32.616,2.35,-0.66,-0.00,2.44
32.626,2.03,-0.82,-0.22,2.20
32.636,1.68,-0.93,-0.48,1.98
32.647,1.42,-0.99,-0.73,1.88
32.657,1.28,-0.95,-1.01,1.89
32.667,1.11,-0.94,-1.25,1.92
32.677,0.92,-0.97,-1.29,1.86
32.687,0.75,-1.06,-1.31,1.84
32.697,0.61,-1.16,-1.23,1.80
32.707,0.47,-1.18,-1.15,1.71
32.717,0.27,-1.14,-1.04,1.57
32.727,0.11,-1.13,-0.87,1.44
32.737,-0.03,-1.21,-0.69,1.39
32.748,-0.16,-1.21,-0.49,1.32
32.757,-0.15,-1.11,-0.39,1.19
32.768,0.01,-0.97,-0.39,1.05
32.778,0.19,-0.67,-0.48,0.85
32.788,0.39,-0.41,-0.56,0.80
32.798,0.58,-0.20,-0.57,0.84
32.808,0.69,-0.04,-0.50,0.85
32.818,0.75,0.03,-0.37,0.83
32.828,0.71,0.11,-0.38,0.81
32.838,0.58,0.20,-0.59,0.85
32.848,0.37,0.32,-0.85,0.98
32.858,0.12,0.39,-1.08,1.16
32.868,-0.08,0.46,-1.26,1.34
32.878,-0.24,0.45,-1.38,1.47
32.888,-0.44,0.32,-1.42,1.52
32.898,-0.70,0.13,-1.42,1.59
32.909,-0.88,-0.10,-1.35,1.62
32.919,-1.00,-0.35,-1.23,1.63
32.929,-1.10,-0.66,-1.22,1.77
32.939,-1.15,-0.87,-1.24,1.90
32.949,-1.24,-1.10,-1.30,2.11
32.959,-1.38,-1.28,-1.46,2.38
32.969,-1.52,-1.19,-1.52,2.46
32.979,-1.53,-1.04,-1.51,2.39
32.989,-1.40,-0.87,-1.34,2.13
32.999,-1.27,-0.64,-0.95,1.70
33.009,-1.00,-0.47,-0.51,1.22
33.019,-0.73,-0.43,0.05,0.85
33.030,-0.51,-0.41,0.68,0.95
33.040,-0.43,-0.40,1.23,1.36
33.050,-0.50,-0.40,1.53,1.66
33.060,-0.67,-0.39,1.76,1.92
33.070,-0.90,-0.36,1.89,2.12
33.080,-1.26,-0.30,1.89,2.29
33.090,-1.69,-0.28,1.95,2.59
33.100,-2.04,-0.28,2.17,2.99
33.110,-2.21,-0.28,2.50,3.35
33.120,-2.21,-0.12,2.85,3.61
33.130,-2.18,0.12,3.17,3.85
33.140,-2.04,0.31,3.39,3.97
33.151,-1.90,0.48,3.50,4.01
33.161,-1.83,0.70,3.45,3.97
33.171,-1.83,1.04,3.29,3.91
33.181,-1.77,1.37,2.95,3.70
33.191,-1.61,1.65,2.62,3.50
33.201,-1.51,1.87,2.40,3.40
33.211,-1.39,2.08,2.27,3.38
33.221,-1.25,2.37,2.03,3.36
33.231,-1.13,2.70,1.62,3.35
33.241,-1.07,2.87,1.13,3.26
33.251,-1.07,2.92,0.67,3.18
33.261,-1.10,2.93,0.30,3.15
33.271,-1.19,2.83,0.06,3.07
33.282,-1.30,2.71,-0.11,3.01
33.292,-1.49,2.54,-0.31,2.96
33.302,-1.78,2.33,-0.53,2.98
33.312,-2.18,2.10,-0.67,3.10
33.322,-2.60,1.84,-0.74,3.27
33.332,-2.97,1.62,-0.76,3.47
33.342,-3.19,1.51,-0.65,3.59
33.352,-3.20,1.36,-0.45,3.50
33.362,-3.08,1.16,-0.22,3.29
33.372,-2.81,1.01,0.04,2.99
33.382,-2.54,0.81,0.40,2.69
33.392,-2.14,0.57,0.75,2.34
33.402,-1.69,0.37,0.95,1.97
33.413,-1.24,0.17,1.09,1.66
33.422,-0.87,0.04,1.16,1.45
33.433,-0.68,-0.05,1.13,1.32
33.443,-0.47,-0.07,1.03,1.13
33.453,-0.35,-0.11,0.82,0.89
33.463,-0.28,-0.17,0.61,0.69
33.473,-0.21,-0.26,0.36,0.49
33.483,-0.27,-0.40,0.20,0.52
33.493,-0.41,-0.62,0.04,0.74
33.503,-0.50,-0.90,-0.09,1.03
33.513,-0.57,-1.18,-0.12,1.32
33.523,-0.53,-1.36,-0.16,1.47
33.534,-0.44,-1.37,-0.31,1.47
33.544,-0.40,-1.25,-0.37,1.37
33.554,-0.45,-1.23,-0.51,1.40
33.564,-0.53,-1.22,-0.63,1.47
33.574,-0.57,-1.22,-0.69,1.51
33.584,-0.54,-1.18,-0.56,1.41
33.594,-0.50,-1.19,-0.34,1.33
33.604,-0.50,-1.25,-0.09,1.35
33.614,-0.50,-1.27,0.08,1.36
33.624,-0.57,-1.20,0.22,1.34
33.634,-0.66,-1.10,0.25,1.31
33.644,-0.75,-0.94,0.16,1.21
33.655,-0.86,-0.73,0.06,1.13
33.665,-0.93,-0.54,-0.03,1.08
33.675,-0.85,-0.44,-0.04,0.96
33.685,-0.71,-0.32,0.06,0.78
33.695,-0.50,-0.36,0.20,0.65
33.705,-0.22,-0.45,0.34,0.60
33.715,0.11,-0.51,0.40,0.66
33.725,0.44,-0.60,0.39,0.84
33.735,0.63,-0.69,0.28,0.98
33.745,0.76,-0.71,0.01,1.04
33.755,0.85,-0.59,-0.30,1.07
33.765,0.89,-0.46,-0.59,1.16
33.775,0.95,-0.34,-0.71,1.23
33.785,1.14,-0.16,-0.66,1.32
33.796,1.57,0.07,-0.39,1.62
33.806,1.98,0.18,0.10,1.99
33.816,2.20,0.09,0.47,2.25
33.826,2.32,-0.12,0.73,2.43
33.836,2.37,-0.44,1.01,2.61
33.846,2.39,-0.66,1.18,2.75
33.856,2.34,-0.78,1.09,2.69
33.866,2.13,-0.82,0.57,2.35
33.876,1.87,-0.81,-0.16,2.05
33.886,1.76,-0.78,-0.83,2.10
33.896,1.67,-0.71,-1.34,2.25
33.906,1.62,-0.69,-1.67,2.42
33.917,1.59,-0.81,-1.75,2.50
33.926,1.67,-0.87,-1.63,2.49
33.937,1.76,-0.76,-1.57,2.48
33.947,1.83,-0.60,-1.63,2.53
33.957,1.87,-0.36,-1.55,2.46
33.967,2.00,-0.12,-1.17,2.32
33.977,2.24,0.13,-0.56,2.31
33.987,2.62,0.38,0.07,2.65
33.997,3.01,0.57,0.61,3.13
34.007,3.27,0.70,0.89,3.46
34.017,3.33,0.72,1.01,3.55
34.027,3.20,0.76,0.94,3.42
34.038,2.94,0.89,0.66,3.15
34.047,2.72,1.11,0.34,2.96
34.058,2.59,1.28,0.05,2.89
34.068,2.47,1.37,-0.13,2.83
34.078,2.49,1.42,-0.08,2.87
34.088,2.58,1.46,0.17,2.97
34.098,2.67,1.30,0.51,3.02
34.108,2.78,1.01,0.70,3.04
34.118,2.88,0.75,0.81,3.09
34.128,2.87,0.58,0.79,3.03
34.138,2.88,0.47,0.63,2.99
34.148,2.76,0.42,0.39,2.82
34.158,2.48,0.33,0.15,2.51
34.168,2.16,0.19,-0.07,2.17
34.179,1.89,0.07,-0.24,1.90
34.189,1.67,-0.07,-0.29,1.70
34.199,1.54,-0.16,-0.26,1.57
34.209,1.50,-0.19,-0.22,1.53
34.219,1.45,-0.21,-0.21,1.48
34.229,1.38,-0.29,-0.12,1.41
34.239,1.35,-0.44,0.04,1.42
34.249,1.30,-0.53,0.13,1.40
34.259,1.24,-0.58,0.16,1.38
34.269,1.16,-0.66,0.16,1.34
34.279,1.05,-0.73,0.10,1.28
34.289,0.88,-0.80,0.03,1.19
34.300,0.73,-0.79,-0.11,1.08
34.310,0.54,-0.81,-0.28,1.01
34.320,0.33,-0.84,-0.45,1.01
34.330,0.09,-0.85,-0.61,1.05
34.340,-0.01,-0.87,-0.70,1.11
34.350,0.01,-0.79,-0.71,1.06
34.360,0.13,-0.75,-0.64,0.99
34.370,0.30,-0.72,-0.58,0.97
34.380,0.42,-0.69,-0.47,0.93
34.390,0.50,-0.73,-0.40,0.97
34.400,0.53,-0.78,-0.39,1.01
34.410,0.48,-0.73,-0.39,0.95
34.420,0.43,-0.68,-0.39,0.90
34.430,0.26,-0.70,-0.34,0.82
34.441,-0.01,-0.73,-0.38,0.83
34.451,-0.24,-0.71,-0.50,0.90
34.461,-0.48,-0.55,-0.66,0.98
34.471,-0.69,-0.41,-0.81,1.14
34.481,-0.76,-0.30,-0.87,1.20
34.491,-0.89,-0.14,-0.82,1.22
34.501,-1.00,-0.10,-0.77,1.27
34.511,-1.12,-0.11,-0.73,1.34
34.521,-1.26,-0.07,-0.64,1.41
34.531,-1.37,-0.01,-0.50,1.46
34.542,-1.50,-0.03,-0.23,1.52
34.551,-1.61,-0.13,0.17,1.63
34.562,-1.66,-0.28,0.61,1.79
34.572,-1.67,-0.42,1.05,2.02
34.582,-1.76,-0.59,1.32,2.27
34.592,-1.65,-0.72,1.43,2.30
34.602,-1.55,-0.69,1.45,2.24
34.612,-1.53,-0.60,1.33,2.11
34.622,-1.50,-0.50,1.03,1.89
34.632,-1.47,-0.35,0.66,1.65
34.642,-1.43,-0.24,0.30,1.48
34.652,-1.31,-0.10,-0.03,1.32
34.662,-1.24,-0.06,-0.27,1.27
34.672,-1.14,-0.10,-0.35,1.20
34.683,-1.04,-0.14,-0.35,1.10
34.693,-0.93,-0.19,-0.26,0.98
34.703,-0.93,-0.25,-0.09,0.97
34.713,-0.90,-0.27,0.10,0.95
34.723,-0.86,-0.16,0.37,0.95
34.733,-0.89,-0.05,0.61,1.08
34.743,-0.87,0.13,0.83,1.21
34.753,-1.03,0.33,1.03,1.49
34.763,-1.21,0.50,1.20,1.77
34.773,-1.24,0.61,1.40,1.97
34.783,-1.25,0.84,1.57,2.17
34.793,-1.24,1.18,1.63,2.36
34.804,-1.25,1.58,1.49,2.50
34.814,-1.39,1.96,1.16,2.67
34.824,-1.56,2.22,0.77,2.82
34.834,-1.63,2.51,0.57,3.04
34.844,-1.53,2.72,0.58,3.18
34.854,-1.35,2.72,0.69,3.11
34.864,-1.25,2.66,0.71,3.03
34.874,-1.28,2.60,0.61,2.96
34.884,-1.35,2.55,0.42,2.91
34.894,-1.40,2.47,0.15,2.85
34.904,-1.56,2.33,-0.01,2.80
34.914,-1.81,2.14,-0.06,2.81
34.925,-2.07,1.88,-0.02,2.79
34.934,-2.27,1.68,0.10,2.83
34.945,-2.31,1.48,0.26,2.76
34.955,-2.28,1.27,0.44,2.65
34.965,-2.23,1.01,0.57,2.51
34.975,-2.10,0.78,0.61,2.32
34.985,-1.91,0.51,0.60,2.06
34.995,-1.64,0.32,0.53,1.75
35.005,-1.44,0.19,0.39,1.51
35.015,-1.42,-0.03,0.23,1.44
35.025,-1.43,-0.36,0.08,1.48
35.035,-1.37,-0.59,0.02,1.49
35.045,-1.37,-0.78,-0.14,1.59
35.055,-1.35,-1.02,-0.42,1.74
35.066,-1.35,-1.30,-0.72,2.01
35.076,-1.36,-1.43,-0.88,2.16
35.086,-1.31,-1.45,-0.92,2.16
35.096,-1.21,-1.52,-0.87,2.13
35.106,-1.18,-1.56,-0.71,2.08
35.116,-0.99,-1.54,-0.51,1.90
35.126,-0.76,-1.35,-0.32,1.58
35.136,-0.52,-1.14,-0.18,1.27
35.146,-0.36,-1.01,-0.12,1.08
35.156,-0.29,-0.92,-0.08,0.97
35.166,-0.29,-0.85,-0.06,0.90
35.176,-0.37,-0.82,-0.01,0.90
35.187,-0.56,-0.85,0.10,1.03
35.197,-0.62,-0.91,0.32,1.15
35.207,-0.56,-0.89,0.74,1.28
35.217,-0.59,-0.74,1.10,1.45
35.227,-0.50,-0.59,1.24,1.46
35.237,-0.46,-0.38,1.24,1.38
35.247,-0.48,-0.19,1.13,1.24
35.257,-0.44,0.01,0.97,1.06
35.267,-0.32,0.26,0.87,0.96
35.277,-0.08,0.52,0.86,1.00
35.287,0.11,0.74,0.79,1.09
35.297,0.29,0.86,0.68,1.14
35.308,0.46,0.83,0.48,1.07
35.317,0.64,0.77,0.33,1.06
35.328,0.83,0.68,0.26,1.10
35.338,1.02,0.64,0.13,1.21
35.348,1.14,0.68,0.02,1.33
35.358,1.15,0.65,-0.09,1.33
35.368,1.21,0.55,-0.26,1.35
35.378,1.30,0.43,-0.31,1.41
35.388,1.54,0.38,-0.19,1.60
35.398,1.71,0.23,-0.00,1.73
35.408,1.86,-0.10,0.21,1.87
35.418,1.94,-0.40,0.34,2.01
35.428,1.97,-0.61,0.29,2.08
35.438,1.96,-0.74,-0.05,2.10
35.449,1.97,-0.85,-0.50,2.20
35.459,1.90,-0.97,-0.98,2.35
35.469,1.73,-1.10,-1.49,2.53
35.479,1.47,-1.24,-1.87,2.68
35.489,1.10,-1.38,-2.09,2.74
35.499,0.88,-1.55,-2.11,2.76
35.509,0.86,-1.70,-1.78,2.60
35.519,1.06,-1.69,-1.25,2.35
35.529,1.43,-1.59,-0.74,2.26
35.539,1.94,-1.44,-0.41,2.45
35.549,2.25,-1.21,-0.31,2.57
35.559,2.41,-0.97,-0.41,2.63
35.570,2.54,-0.75,-0.59,2.71
35.580,2.66,-0.50,-0.81,2.83
35.590,2.80,-0.14,-1.01,2.98
35.600,2.83,0.12,-1.09,3.04
35.610,2.75,0.30,-0.95,2.92
35.620,2.58,0.33,-0.67,2.69
35.630,2.37,0.25,-0.24,2.39
35.640,2.20,0.16,0.25,2.22
35.650,2.01,0.18,0.62,2.11
35.660,1.61,0.23,0.72,1.78
35.670,1.28,0.24,0.58,1.43
35.680,1.17,0.39,0.31,1.27
35.691,1.25,0.56,0.08,1.37
35.700,1.42,0.65,-0.08,1.56
35.711,1.59,0.72,-0.24,1.76
35.721,1.72,0.74,-0.32,1.90
35.731,1.71,0.69,-0.35,1.88
35.741,1.59,0.58,-0.34,1.73
35.751,1.50,0.54,-0.35,1.64
35.761,1.36,0.56,-0.34,1.51
35.771,1.18,0.44,-0.35,1.31
35.781,1.08,0.29,-0.27,1.15
35.791,0.99,0.21,-0.18,1.03
35.801,0.99,0.16,-0.14,1.01
35.811,0.99,0.07,-0.14,1.01
35.821,1.00,-0.02,-0.17,1.02
35.832,0.97,-0.05,-0.15,0.98
35.842,0.93,-0.09,-0.16,0.95
35.852,0.86,-0.19,-0.15,0.89
35.862,0.87,-0.25,-0.12,0.91
35.872,0.93,-0.25,-0.09,0.97
35.882,0.99,-0.20,-0.13,1.02
35.892,0.98,-0.21,-0.16,1.02
35.902,0.89,-0.26,-0.20,0.95
35.912,0.71,-0.37,-0.32,0.86
35.922,0.57,-0.47,-0.41,0.84
35.932,0.57,-0.48,-0.48,0.89
35.942,0.62,-0.42,-0.51,0.91
35.953,0.55,-0.39,-0.56,0.87
35.963,0.42,-0.35,-0.67,0.86
35.973,0.27,-0.36,-0.74,0.86
35.983,0.16,-0.42,-0.67,0.81
35.993,0.00,-0.52,-0.50,0.72
36.003,-0.19,-0.65,-0.41,0.79
36.013,-0.27,-0.74,-0.33,0.86
36.023,-0.26,-0.69,-0.27,0.78
36.033,-0.18,-0.57,-0.22,0.64
36.043,-0.26,-0.49,-0.25,0.61
36.053,-0.38,-0.46,-0.30,0.67
36.063,-0.36,-0.34,-0.40,0.64
36.074,-0.51,-0.16,-0.55,0.77
36.083,-0.52,-0.05,-0.61,0.81
36.094,-0.41,0.08,-0.65,0.77
36.104,-0.06,0.31,-0.49,0.59
36.114,0.39,0.49,-0.26,0.67
36.124,0.65,0.53,-0.09,0.84
36.134,0.60,0.53,0.11,0.81
36.144,0.44,0.48,0.26,0.70
36.154,0.20,0.33,0.40,0.56
36.164,-0.28,0.10,0.62,0.69
36.174,-0.87,-0.18,0.90,1.26
36.184,-1.51,-0.42,1.17,1.96
36.195,-1.94,-0.59,1.47,2.50
36.204,-2.08,-0.63,1.72,2.77
36.215,-2.11,-0.57,1.83,2.85
36.225,-2.06,-0.50,1.81,2.79
36.235,-1.98,-0.40,1.70,2.64
36.245,-1.92,-0.26,1.40,2.39
36.255,-1.91,-0.19,1.03,2.18
36.265,-1.97,-0.14,0.70,2.09
36.275,-2.06,-0.07,0.43,2.11
36.285,-2.14,0.02,0.35,2.17
36.295,-2.16,0.18,0.41,2.21
36.305,-2.15,0.32,0.68,2.28
36.315,-2.12,0.31,1.09,2.40
36.325,-2.14,0.33,1.49,2.63
36.335,-2.21,0.47,1.78,2.88
36.345,-2.15,0.53,2.05,3.01
36.356,-2.19,0.65,2.32,3.26
36.366,-2.45,0.61,2.54,3.58
36.376,-2.62,0.91,2.94,4.04
36.386,-2.28,1.31,3.07,4.04
36.396,-1.85,1.50,2.81,3.68
36.406,-1.74,1.76,2.38,3.43
36.416,-1.83,2.07,1.82,3.31
36.426,-1.87,2.27,1.28,3.20
36.436,-1.91,2.34,0.83,3.13
36.446,-1.95,2.27,0.57,3.04
36.456,-1.88,2.14,0.50,2.89
36.466,-1.87,2.07,0.52,2.84
36.477,-1.80,2.01,0.52,2.75
36.487,-1.60,1.91,0.49,2.54
36.497,-1.42,1.88,0.42,2.39
36.507,-1.23,1.81,0.43,2.23
36.517,-0.97,1.80,0.49,2.10
36.527,-0.71,1.86,0.51,2.05
36.537,-0.42,1.83,0.54,1.95
36.547,-0.27,1.69,0.66,1.83
36.557,-0.13,1.46,0.75,1.64
36.567,-0.03,1.25,0.80,1.49
36.578,-0.01,0.97,0.88,1.31
36.587,-0.00,0.72,0.92,1.17
36.598,-0.05,0.50,0.89,1.02
36.608,-0.21,0.21,0.85,0.91
36.618,-0.43,-0.09,0.82,0.93
36.628,-0.66,-0.41,0.81,1.12
36.638,-0.85,-0.64,0.84,1.36
36.648,-0.90,-0.85,0.79,1.47
36.658,-0.94,-1.10,0.72,1.62
36.668,-1.03,-1.29,0.78,1.82
36.678,-1.07,-1.34,0.62,1.82
36.688,-1.10,-1.41,0.39,1.83
36.698,-1.17,-1.47,0.33,1.91
36.708,-1.29,-1.47,0.24,1.97
36.719,-1.35,-1.46,0.16,2.00
36.729,-1.31,-1.50,0.14,1.99
36.739,-1.21,-1.51,0.27,1.95
36.749,-1.07,-1.45,0.49,1.86
36.759,-0.84,-1.36,0.56,1.69
36.769,-0.67,-1.25,0.51,1.51
36.779,-0.52,-1.08,0.41,1.26
36.789,-0.36,-0.86,0.32,0.99
36.799,-0.24,-0.62,0.22,0.70
36.809,-0.17,-0.51,0.20,0.57
36.819,-0.10,-0.43,0.20,0.48
36.829,-0.17,-0.36,0.14,0.42
36.840,-0.10,-0.34,-0.03,0.35
36.850,0.14,-0.27,-0.24,0.38
36.860,0.25,-0.11,-0.31,0.41
36.870,0.27,0.09,-0.31,0.42
36.880,0.45,0.28,-0.43,0.68
36.890,0.60,0.46,-0.55,0.94
36.900,0.69,0.63,-0.59,1.10
36.910,0.74,0.70,-0.51,1.14
36.920,0.90,0.68,-0.38,1.19
36.930,1.14,0.62,-0.04,1.30
36.940,1.51,0.48,0.39,1.64
36.950,1.87,0.32,0.79,2.05
36.961,2.15,0.18,1.00,2.38
36.970,2.32,0.05,1.03,2.54
36.981,2.49,-0.01,0.95,2.66
36.991,2.57,-0.13,0.71,2.67
37.001,2.61,-0.23,0.37,2.65
37.011,2.59,-0.27,-0.03,2.60
37.021,2.47,-0.30,-0.38,2.51
37.031,2.26,-0.44,-0.68,2.40
37.041,2.03,-0.60,-0.92,2.31
37.051,1.85,-0.75,-1.00,2.23
37.061,1.70,-0.97,-1.01,2.20
37.071,1.60,-1.17,-0.93,2.18
37.081,1.49,-1.33,-0.72,2.12
37.091,1.36,-1.47,-0.42,2.04
37.102,1.29,-1.54,-0.23,2.02
37.111,1.32,-1.53,-0.20,2.03
37.122,1.33,-1.50,-0.31,2.03
37.132,1.28,-1.44,-0.50,1.99
37.142,1.18,-1.29,-0.72,1.89
37.152,1.07,-1.14,-0.93,1.82
37.162,1.03,-1.06,-1.13,1.86
37.172,1.03,-0.88,-1.29,1.87
37.182,1.10,-0.55,-1.40,1.86
37.192,1.20,-0.21,-1.45,1.90
37.202,1.29,0.08,-1.43,1.92
37.212,1.39,0.36,-1.37,1.98
37.223,1.47,0.66,-1.20,2.01
37.232,1.61,0.93,-0.89,2.06
37.243,1.97,1.12,-0.55,2.33
37.253,2.35,1.26,-0.26,2.68
37.263,2.69,1.34,-0.04,3.00
37.273,2.93,1.37,0.22,3.24
37.283,3.11,1.30,0.53,3.42
37.293,3.33,1.26,0.72,3.64
37.303,3.52,1.11,0.91,3.80
37.313,3.65,0.99,1.01,3.91
37.323,3.72,0.87,1.05,3.96
37.333,3.63,0.73,1.01,3.84
37.344,3.30,0.53,0.94,3.47
37.353,2.91,0.26,0.81,3.03
37.364,2.59,0.03,0.67,2.68
37.374,2.29,-0.06,0.54,2.36
37.384,1.99,-0.09,0.34,2.02
37.394,1.82,-0.12,0.02,1.83
37.404,1.75,-0.19,-0.21,1.78
37.414,1.68,-0.23,-0.32,1.72
37.424,1.70,-0.21,-0.41,1.76
37.434,1.68,-0.18,-0.52,1.76
37.444,1.50,-0.25,-0.64,1.65
37.454,1.32,-0.34,-0.80,1.58
37.464,1.16,-0.37,-0.86,1.50
37.474,1.08,-0.34,-0.81,1.39
37.485,1.05,-0.31,-0.70,1.30
37.495,1.01,-0.43,-0.58,1.24
37.505,0.87,-0.58,-0.42,1.13
37.515,0.72,-0.68,-0.38,1.06
37.525,0.52,-0.81,-0.45,1.06
37.535,0.23,-0.99,-0.54,1.15
37.545,0.04,-1.09,-0.61,1.24
37.555,-0.07,-1.11,-0.64,1.28
37.565,-0.16,-1.09,-0.67,1.29
37.575,-0.25,-0.97,-0.77,1.26
37.585,-0.37,-0.86,-0.89,1.29
37.595,-0.42,-0.80,-0.91,1.28
37.606,-0.41,-0.68,-0.74,1.09
37.616,-0.34,-0.55,-0.48,0.80
37.626,-0.23,-0.51,-0.26,0.62
37.636,-0.16,-0.41,-0.09,0.45
37.646,-0.22,-0.28,-0.11,0.37
37.656,-0.21,-0.17,-0.23,0.35
37.666,-0.20,-0.02,-0.37,0.42
37.676,-0.26,0.14,-0.47,0.55
37.686,-0.27,0.25,-0.55,0.66
37.696,-0.35,0.30,-0.56,0.72
37.706,-0.46,0.29,-0.41,0.68
37.716,-0.62,0.26,0.11,0.68
37.726,-0.63,0.21,0.48,0.82
37.736,-0.53,0.11,0.52,0.75
37.746,-0.72,-0.06,0.75,1.04
37.756,-0.91,-0.23,0.76,1.21
37.767,-1.10,-0.36,0.63,1.31
37.777,-1.24,-0.43,0.44,1.39
37.787,-1.45,-0.45,0.21,1.53
37.797,-1.69,-0.41,0.01,1.74
37.807,-1.84,-0.38,-0.18,1.88
37.817,-1.92,-0.28,-0.32,1.97
37.827,-2.01,-0.23,-0.38,2.06
37.837,-2.03,-0.24,-0.40,2.08
37.847,-2.08,-0.25,-0.35,2.12
37.857,-2.16,-0.31,-0.16,2.19
37.868,-2.22,-0.35,0.06,2.25
37.877,-2.16,-0.29,0.34,2.20
37.888,-2.12,-0.19,0.68,2.23
37.898,-2.12,-0.14,1.00,2.35
37.908,-2.22,-0.06,1.31,2.58
37.918,-2.42,0.03,1.61,2.91
37.928,-2.46,0.24,1.86,3.09
37.938,-2.38,0.59,2.08,3.21
37.948,-2.32,1.04,2.30,3.43
37.958,-2.30,1.41,2.32,3.57
37.968,-2.25,1.73,2.21,3.60
37.978,-2.08,2.03,2.17,3.63
37.989,-1.78,2.36,2.19,3.68
37.998,-1.33,2.53,2.37,3.72
38.009,-0.96,2.61,2.51,3.75
38.019,-0.75,2.58,2.50,3.67
38.029,-0.79,2.43,2.28,3.43
38.039,-0.96,2.29,1.82,3.08
38.049,-1.06,2.20,1.24,2.74
38.059,-1.14,2.20,0.67,2.57
38.069,-1.42,2.19,0.11,2.61
38.079,-1.70,2.06,-0.45,2.71
38.089,-2.00,1.95,-0.82,2.91
38.099,-2.26,1.84,-1.08,3.10
38.109,-2.47,1.65,-1.09,3.17
38.119,-2.59,1.49,-0.92,3.12
38.130,-2.60,1.34,-0.54,2.98
38.140,-2.54,1.07,0.04,2.76
38.150,-2.26,0.68,0.59,2.43
38.160,-1.78,0.36,1.10,2.13
38.170,-1.28,0.26,1.48,1.98
38.180,-0.90,0.14,1.53,1.79
38.190,-0.71,0.04,1.41,1.58
38.200,-0.55,-0.04,1.12,1.25
38.210,-0.39,-0.04,0.66,0.76
38.220,-0.23,-0.04,0.28,0.36
38.230,-0.12,-0.10,-0.03,0.16
38.240,0.04,-0.20,-0.24,0.31
38.251,0.11,-0.32,-0.38,0.51
38.261,0.13,-0.45,-0.51,0.69
38.271,0.06,-0.65,-0.62,0.90
38.281,-0.06,-0.83,-0.73,1.11
38.291,-0.10,-0.91,-0.82,1.23
38.301,-0.15,-0.90,-0.93,1.31
38.311,-0.26,-0.86,-0.99,1.34
38.321,-0.34,-0.84,-0.94,1.31
38.331,-0.41,-0.77,-0.91,1.26
38.341,-0.54,-0.70,-0.90,1.27
38.351,-0.53,-0.60,-0.78,1.12
38.361,-0.51,-0.53,-0.59,0.95
38.372,-0.46,-0.54,-0.40,0.81
38.381,-0.32,-0.53,-0.21,0.66
38.392,-0.33,-0.54,-0.08,0.64
38.402,-0.50,-0.53,-0.03,0.73
38.412,-0.63,-0.56,-0.01,0.85
38.422,-0.71,-0.52,-0.01,0.88
38.432,-0.74,-0.37,0.09,0.83
38.442,-0.77,-0.30,0.09,0.83
38.452,-0.84,-0.13,0.06,0.85
38.462,-0.70,0.01,0.07,0.70
38.472,-0.44,0.19,0.04,0.48
38.482,-0.05,0.35,0.03,0.35
38.493,0.43,0.37,0.09,0.57
38.502,0.90,0.38,0.21,1.00
38.513,1.24,0.37,0.20,1.31
38.523,1.46,0.34,0.04,1.49
38.533,1.47,0.22,-0.25,1.51
38.543,1.40,0.14,-0.53,1.51
38.553,1.37,0.11,-0.66,1.52
38.563,1.38,0.05,-0.51,1.47
38.573,1.52,-0.11,-0.19,1.54
38.583,1.73,-0.35,0.25,1.78
38.593,1.90,-0.69,0.60,2.10
38.603,1.97,-1.01,0.75,2.34
38.613,1.91,-1.31,0.77,2.44
38.623,1.70,-1.64,0.61,2.44
38.634,1.43,-1.84,0.31,2.35
38.643,1.19,-1.91,-0.13,2.25
38.654,0.97,-1.93,-0.61,2.24
38.664,0.82,-1.92,-0.96,2.30
38.674,0.75,-1.80,-1.17,2.28
38.684,0.80,-1.65,-1.25,2.22
38.694,0.93,-1.49,-1.12,2.08
38.704,1.11,-1.34,-0.81,1.92
38.714,1.41,-1.13,-0.46,1.87
38.724,1.77,-0.87,-0.18,1.98
38.735,2.01,-0.43,0.04,2.05
38.744,2.03,0.04,-0.00,2.03
38.755,1.79,0.39,-0.31,1.85
38.764,1.52,0.80,-0.61,1.83
38.775,1.37,1.31,-0.62,1.99
38.785,1.53,1.77,-0.23,2.36
38.795,1.90,2.05,0.41,2.83
38.805,2.37,2.15,1.04,3.36
38.815,2.81,2.13,1.63,3.89
38.825,3.03,2.04,1.92,4.12
38.835,3.06,1.89,1.87,4.05
38.845,2.98,1.79,1.59,3.82
38.855,2.83,1.73,1.20,3.53
38.865,2.71,1.60,0.90,3.27
38.876,2.73,1.47,0.68,3.17
38.886,2.77,1.30,0.59,3.12
38.896,2.75,0.98,0.51,2.97
38.906,2.69,0.67,0.41,2.81
38.916,2.62,0.38,0.34,2.67
38.926,2.57,0.13,0.24,2.58
38.936,2.49,-0.09,0.18,2.50
38.946,2.46,-0.23,0.12,2.47
38.956,2.39,-0.37,0.02,2.41
38.966,2.21,-0.49,-0.11,2.27
38.976,1.94,-0.62,-0.29,2.05
38.986,1.73,-0.74,-0.38,1.92
38.997,1.61,-0.73,-0.47,1.83
39.006,1.45,-0.70,-0.56,1.71
39.017,1.26,-0.75,-0.67,1.61
39.027,1.12,-0.84,-0.70,1.57
39.037,1.03,-0.89,-0.68,1.52
39.047,0.99,-0.93,-0.56,1.47
39.057,0.86,-0.99,-0.41,1.37
39.067,0.80,-1.01,-0.28,1.32
39.077,0.82,-1.03,-0.18,1.33
39.087,0.68,-1.04,-0.08,1.24
39.097,0.56,-1.03,-0.06,1.17
39.107,0.43,-1.03,-0.11,1.12
39.117,0.30,-1.02,-0.14,1.07
39.127,0.24,-1.00,-0.09,1.03
39.138,0.27,-0.97,-0.02,1.01
39.148,0.31,-0.96,0.02,1.01
39.158,0.29,-0.98,0.00,1.02
39.168,0.23,-0.95,-0.11,0.98
39.178,0.11,-0.81,-0.29,0.87
39.188,-0.06,-0.68,-0.45,0.82
39.198,-0.31,-0.54,-0.63,0.89
39.208,-0.58,-0.39,-0.80,1.07
39.218,-0.79,-0.22,-0.91,1.22
39.228,-0.96,-0.02,-0.93,1.34
39.238,-1.05,0.17,-0.93,1.41
39.248,-1.08,0.35,-0.85,1.42
39.259,-1.15,0.39,-0.64,1.37
39.269,-1.29,0.26,-0.36,1.36
39.279,-1.30,0.02,-0.05,1.31
39.289,-1.22,-0.21,0.33,1.28
39.299,-1.10,-0.32,0.63,1.31
39.309,-0.98,-0.34,0.97,1.42
39.319,-0.91,-0.25,1.13,1.47
39.329,-0.89,-0.07,1.19,1.49
39.339,-0.93,0.12,1.00,1.37
39.349,-1.04,0.41,0.67,1.30
39.359,-1.18,0.61,0.38,1.38
39.369,-1.23,0.69,0.14,1.41
39.380,-1.22,0.73,0.02,1.43
39.390,-1.14,0.78,0.01,1.39
39.400,-1.05,0.75,0.02,1.29
39.410,-0.99,0.71,0.02,1.22
39.420,-0.95,0.59,-0.07,1.12
39.430,-0.97,0.51,-0.11,1.10
39.440,-1.06,0.30,-0.04,1.11
39.450,-1.16,0.05,0.04,1.16
39.460,-1.25,-0.16,0.17,1.27
39.470,-1.28,-0.40,0.35,1.39
39.480,-1.29,-0.62,0.47,1.51
39.490,-1.35,-0.82,0.56,1.68
39.501,-1.42,-0.98,0.59,1.83
39.510,-1.48,-1.05,0.59,1.91
39.521,-1.52,-1.01,0.45,1.88
39.530,-1.60,-0.87,0.30,1.84
39.541,-1.68,-0.59,0.17,1.79
39.551,-1.79,-0.18,0.11,1.80
39.561,-1.93,0.25,0.23,1.96
39.571,-2.09,0.60,0.37,2.21
39.581,-2.18,0.92,0.61,2.44
39.591,-2.13,1.22,1.03,2.66
39.601,-1.98,1.46,1.50,2.89
39.611,-1.74,1.55,1.90,3.01
39.621,-1.46,1.57,2.12,3.01
39.631,-1.22,1.66,2.09,2.94
39.642,-1.09,1.78,1.77,2.74
39.651,-1.24,2.01,1.14,2.62
39.662,-1.43,2.22,0.38,2.67
39.672,-1.64,2.33,-0.36,2.87
39.682,-1.94,2.33,-0.76,3.13
39.692,-2.26,2.26,-0.91,3.33
39.702,-2.47,2.03,-0.93,3.33
39.712,-2.64,1.73,-0.72,3.24
39.722,-2.61,1.40,-0.39,2.99
39.732,-2.45,1.07,-0.04,2.67
39.742,-2.23,0.83,0.16,2.39
39.752,-1.98,0.73,0.15,2.12
39.763,-1.81,0.73,-0.01,1.95
39.772,-1.67,0.61,-0.21,1.79
39.783,-1.49,0.50,-0.39,1.62
39.793,-1.26,0.47,-0.43,1.41
39.803,-0.99,0.42,-0.31,1.11
39.813,-0.72,0.27,-0.24,0.81
39.823,-0.49,0.15,-0.21,0.55
39.833,-0.34,0.10,-0.07,0.36
39.843,-0.23,-0.10,0.14,0.29
39.853,-0.13,-0.32,0.33,0.48
39.863,-0.14,-0.45,0.51,0.69
39.873,-0.22,-0.60,0.54,0.84
39.883,-0.36,-0.73,0.49,0.95
39.893,-0.51,-0.74,0.34,0.96
39.904,-0.69,-0.62,0.12,0.93
39.914,-0.76,-0.50,-0.16,0.92
39.924,-0.76,-0.40,-0.36,0.93
39.934,-0.77,-0.35,-0.48,0.97
39.944,-0.73,-0.42,-0.58,1.02
39.954,-0.69,-0.42,-0.60,1.01
39.964,-0.73,-0.37,-0.56,0.99
39.974,-0.68,-0.36,-0.43,0.88
39.984,-0.71,-0.39,-0.27,0.85
39.994,-0.72,-0.36,-0.02,0.81
40.004,-0.66,-0.36,0.13,0.76
40.014,-0.62,-0.34,0.29,0.76
40.025,-0.55,-0.25,0.37,0.70
40.035,-0.40,-0.08,0.39,0.57
40.045,-0.20,0.12,0.40,0.47
40.055,-0.02,0.26,0.29,0.39
40.065,0.09,0.27,0.14,0.32
40.075,0.25,0.27,0.00,0.37
40.085,0.39,0.26,-0.08,0.48
40.095,0.56,0.20,-0.11,0.61
40.105,0.68,0.09,-0.04,0.69
40.115,0.77,-0.06,0.13,0.79
40.125,0.87,-0.19,0.27,0.93
40.135,0.94,-0.27,0.35,1.04
40.145,0.92,-0.40,0.35,1.07
40.155,0.87,-0.66,0.25,1.12
40.166,0.88,-0.82,0.10,1.21
40.176,1.02,-0.86,-0.03,1.34
40.186,1.29,-0.87,-0.13,1.56
40.196,1.50,-0.96,-0.21,1.79
40.206,1.64,-1.12,-0.17,1.99
40.216,1.64,-1.35,-0.05,2.12
40.226,1.54,-1.55,0.04,2.18
40.236,1.48,-1.75,0.14,2.30
40.246,1.41,-1.89,0.25,2.37
40.256,1.29,-2.00,0.36,2.41
40.266,1.21,-2.01,0.39,2.38
40.276,1.28,-1.96,0.30,2.36
40.287,1.48,-1.81,0.17,2.34
40.296,1.87,-1.61,0.06,2.47
40.307,2.33,-1.38,0.05,2.71
40.317,2.68,-1.28,0.01,2.97
40.327,2.81,-1.23,-0.12,3.07
40.337,2.84,-1.22,-0.21,3.10
40.347,2.62,-1.15,-0.27,2.87
40.357,2.39,-0.99,-0.31,2.61
40.367,2.43,-0.63,-0.32,2.54
40.377,2.31,-0.16,-0.36,2.35
40.387,2.34,0.40,-0.38,2.40
40.397,2.37,1.01,-0.23,2.58
40.408,2.32,1.38,0.05,2.70
40.417,2.31,1.52,0.44,2.80
40.428,2.32,1.52,0.87,2.91
40.438,2.29,1.61,1.30,3.09
40.448,2.29,1.63,1.70,3.29
40.458,2.23,1.60,1.99,3.39
40.468,2.09,1.57,2.06,3.33
40.478,1.92,1.54,1.81,3.05
40.488,1.65,1.53,1.36,2.63
40.498,1.30,1.43,0.81,2.09
40.508,1.03,1.22,0.23,1.61
40.518,0.82,1.03,-0.18,1.33
40.528,0.71,0.79,-0.43,1.14
40.538,0.71,0.51,-0.63,1.08
40.549,0.81,0.31,-0.75,1.15
40.559,0.95,0.26,-0.85,1.31
40.569,1.09,0.26,-0.92,1.45
40.579,1.29,0.30,-1.03,1.68
40.589,1.35,0.45,-1.18,1.85
40.599,1.28,0.44,-1.39,1.94
40.609,1.28,0.37,-1.47,1.99
40.619,1.23,0.34,-1.37,1.88
40.629,1.12,0.15,-1.23,1.67
40.639,0.98,-0.12,-1.06,1.45
40.649,0.81,-0.30,-0.80,1.18
40.659,0.70,-0.50,-0.57,1.03
40.669,0.71,-0.68,-0.33,1.04
40.679,0.68,-0.71,-0.14,0.99
40.690,0.63,-0.67,0.00,0.92
40.700,0.58,-0.70,0.06,0.91
40.710,0.54,-0.71,0.08,0.89
40.720,0.51,-0.69,0.05,0.86
40.730,0.48,-0.69,-0.09,0.85
40.740,0.43,-0.59,-0.30,0.79
40.750,0.34,-0.49,-0.50,0.78
40.760,0.24,-0.43,-0.72,0.87
40.770,0.15,-0.33,-0.79,0.87
40.780,0.07,-0.29,-0.75,0.81
40.790,-0.04,-0.28,-0.66,0.72
40.800,-0.11,-0.22,-0.58,0.63
40.811,-0.22,-0.14,-0.46,0.53
40.821,-0.34,-0.05,-0.32,0.47
40.831,-0.52,-0.00,-0.15,0.54
40.841,-0.66,0.05,-0.00,0.66
40.851,-0.74,0.09,0.14,0.76
40.861,-0.84,0.17,0.26,0.90
40.871,-0.94,0.29,0.34,1.04
40.881,-1.09,0.36,0.33,1.20
40.891,-1.27,0.36,0.29,1.35
40.901,-1.36,0.24,0.34,1.42
40.912,-1.36,0.09,0.49,1.45
40.921,-1.31,-0.10,0.63,1.46
40.932,-1.17,-0.29,0.71,1.40
40.942,-1.08,-0.42,0.66,1.34
40.952,-1.06,-0.49,0.45,1.25
40.962,-1.24,-0.50,0.08,1.34
40.972,-1.53,-0.52,-0.26,1.64
40.982,-1.71,-0.47,-0.44,1.83
40.992,-1.80,-0.37,-0.45,1.89
41.002,-1.83,-0.29,-0.27,1.88
41.012,-1.83,-0.23,-0.04,1.84
41.022,-1.64,-0.10,0.12,1.65
41.032,-1.62,-0.08,0.12,1.63
41.042,-1.46,-0.06,0.21,1.47
41.053,-1.26,-0.10,0.28,1.30
41.063,-1.10,-0.16,0.39,1.17
41.073,-0.94,-0.22,0.51,1.09
41.083,-0.80,-0.30,0.60,1.04
41.093,-0.70,-0.35,0.71,1.05
41.103,-0.69,-0.34,0.76,1.08
41.113,-0.73,-0.27,0.68,1.04
41.123,-0.77,-0.15,0.59,0.98
41.133,-0.79,0.04,0.60,1.00
41.143,-0.93,0.24,0.46,1.07
41.153,-1.07,0.37,0.45,1.22
41.163,-1.19,0.51,0.32,1.33
41.174,-1.23,0.75,0.29,1.47
41.184,-1.25,0.96,0.24,1.60
41.194,-1.14,1.24,0.13,1.69
41.204,-0.95,1.56,0.03,1.83
41.214,-0.75,1.81,-0.07,1.96
41.224,-0.70,1.97,-0.18,2.10
41.234,-0.75,1.94,-0.27,2.10
41.244,-0.84,1.80,-0.54,2.06
41.254,-0.93,1.62,-0.84,2.04
41.264,-1.02,1.41,-1.07,2.04
41.274,-1.18,1.23,-1.13,2.04
41.284,-1.40,0.98,-1.03,2.00
41.295,-1.78,0.72,-0.87,2.11
41.304,-2.19,0.55,-0.79,2.39
41.315,-2.37,0.59,-0.72,2.54
41.325,-2.37,0.72,-0.60,2.54
41.335,-2.29,0.82,-0.47,2.47
41.345,-2.14,0.88,-0.34,2.34
41.355,-2.01,0.86,-0.24,2.20
41.365,-1.79,0.82,-0.28,1.99
41.375,-1.61,0.81,-0.33,1.83
41.385,-1.47,0.78,-0.29,1.69
41.395,-1.29,0.67,-0.18,1.46
41.405,-1.05,0.65,0.00,1.24
41.415,-0.86,0.64,0.18,1.09
41.425,-0.73,0.50,0.22,0.91
41.436,-0.61,0.28,0.20,0.70
41.446,-0.48,0.07,0.16,0.51
41.456,-0.42,-0.14,0.05,0.45
41.466,-0.47,-0.38,-0.07,0.61
41.476,-0.54,-0.60,-0.19,0.83
41.486,-0.66,-0.74,-0.36,1.05
41.496,-0.87,-0.83,-0.52,1.31
41.506,-1.08,-0.86,-0.59,1.50
41.516,-1.32,-0.88,-0.60,1.70
41.526,-1.52,-0.95,-0.58,1.88
41.536,-1.68,-0.95,-0.48,1.99
41.546,-1.85,-0.95,-0.31,2.10
41.557,-1.96,-0.99,-0.10,2.20
41.566,-2.00,-0.97,0.06,2.22
41.577,-1.98,-0.93,0.18,2.20
41.587,-1.89,-0.80,0.31,2.07
41.597,-1.76,-0.55,0.53,1.92
41.607,-1.58,-0.26,0.71,1.75
41.617,-1.39,-0.05,0.80,1.61
41.627,-1.19,0.12,0.85,1.47
41.637,-0.92,0.33,0.89,1.32
41.647,-0.66,0.46,0.94,1.24
41.657,-0.39,0.44,0.99,1.15
41.667,-0.06,0.37,1.11,1.17
41.678,0.24,0.30,1.22,1.28
41.687,0.52,0.23,1.28,1.41
41.698,0.75,0.19,1.19,1.42
41.708,0.94,0.15,0.95,1.35
41.718,1.03,0.17,0.61,1.21
41.728,1.13,0.15,0.27,1.17
41.738,1.31,0.08,0.01,1.31
41.748,1.47,-0.09,-0.17,1.48
41.758,1.62,-0.30,-0.17,1.65
41.768,1.71,-0.58,0.08,1.81
41.778,1.78,-0.95,0.35,2.05
41.788,1.80,-1.31,0.57,2.30
41.798,1.83,-1.57,0.64,2.49
41.808,1.82,-1.71,0.41,2.53
41.819,1.75,-1.75,-0.05,2.47
41.829,1.69,-1.67,-0.56,2.44
41.839,1.76,-1.56,-1.02,2.57
41.849,1.89,-1.49,-1.26,2.72
41.859,2.19,-1.46,-1.22,2.90
41.869,2.44,-1.52,-1.01,3.04
41.879,2.54,-1.69,-0.66,3.12
41.889,2.73,-1.86,-0.34,3.32
41.899,2.98,-1.82,-0.03,3.49
41.909,3.28,-1.63,0.17,3.66
41.919,3.36,-1.40,0.14,3.65
41.929,3.12,-1.20,-0.09,3.34
41.940,2.60,-1.06,-0.56,2.86
41.950,2.13,-0.75,-1.05,2.49
41.960,1.77,-0.04,-1.36,2.24
41.970,1.58,0.78,-1.21,2.14
41.980,1.79,1.47,-0.89,2.48
41.990,2.36,1.96,-0.01,3.07
42.000,3.11,2.29,1.24,4.06
42.010,3.74,2.40,2.31,5.00
42.020,4.08,2.43,3.04,5.64
42.030,4.07,2.57,3.35,5.87
42.040,3.89,2.76,3.08,5.68
42.050,3.52,2.89,2.37,5.14
42.061,3.15,2.76,1.58,4.48
42.070,2.80,2.50,1.01,3.89
42.081,2.62,2.23,0.67,3.51
42.091,2.51,1.78,0.53,3.12
42.101,2.48,1.29,0.45,2.84
42.111,2.42,0.90,0.50,2.63
42.121,2.28,0.58,0.52,2.42
42.131,2.19,0.37,0.40,2.26
42.141,2.02,0.25,0.26,2.05
42.151,1.65,0.12,0.04,1.65
42.161,1.30,-0.07,-0.34,1.35
42.171,1.04,-0.27,-0.61,1.24
42.181,0.85,-0.50,-0.72,1.22
42.191,0.71,-0.59,-0.70,1.16
42.202,0.56,-0.74,-0.60,1.11
42.212,0.43,-0.93,-0.43,1.11
42.222,0.40,-1.00,-0.26,1.10
42.232,0.35,-1.03,-0.10,1.09
42.242,0.27,-1.06,-0.10,1.10
42.252,0.23,-1.10,-0.17,1.13
42.262,0.25,-1.12,-0.21,1.16
42.272,0.28,-0.94,-0.30,1.02
42.282,0.26,-0.88,-0.41,1.00
42.292,0.12,-0.94,-0.59,1.12
42.303,-0.05,-0.97,-0.70,1.19
42.312,-0.11,-0.94,-0.73,1.19
42.323,-0.03,-0.88,-0.68,1.11
42.333,0.10,-0.79,-0.47,0.92
42.343,0.21,-0.56,-0.19,0.63
42.353,0.19,-0.39,0.07,0.44
42.363,0.03,-0.32,0.26,0.42
42.373,-0.04,-0.37,0.48,0.61
42.383,0.02,-0.45,0.70,0.84
42.393,-0.17,-0.52,0.79,0.96
42.403,-0.35,-0.44,0.70,0.90
42.413,-0.39,-0.14,0.46,0.63
42.423,-0.51,0.17,0.13,0.55
42.433,-0.67,0.30,-0.16,0.75
42.444,-0.74,0.35,-0.32,0.88
42.454,-0.79,0.41,-0.41,0.98
42.464,-0.89,0.33,-0.49,1.06
42.474,-0.93,0.18,-0.31,1.00
42.484,-1.03,-0.12,0.07,1.04
42.494,-1.16,-0.42,0.43,1.31
42.504,-1.25,-0.66,0.73,1.59
42.514,-1.51,-0.90,0.82,1.94
42.524,-1.83,-1.12,0.71,2.26
42.534,-2.08,-1.20,0.69,2.50
42.544,-2.09,-1.22,0.70,2.52
42.554,-1.91,-1.21,0.71,2.37
42.564,-1.75,-1.23,0.74,2.27
42.574,-1.62,-1.28,0.70,2.18
42.585,-1.62,-1.29,0.61,2.16
42.595,-1.77,-1.38,0.45,2.29
42.605,-1.86,-1.48,0.26,2.39
42.615,-1.83,-1.27,0.18,2.24
42.625,-1.79,-0.92,0.10,2.02
