time,ax,ay,az,atotal
0.000,-0.78,-0.49,-1.70,1.93
0.010,-0.79,-0.12,-1.66,1.85
0.020,-0.30,0.17,-1.56,1.60
0.030,0.16,0.39,-1.29,1.36
0.040,0.47,0.79,-0.73,1.17
0.050,0.69,0.97,-0.15,1.20
0.060,0.84,0.97,0.30,1.31
0.071,0.72,1.00,0.53,1.34
0.081,0.49,1.12,0.58,1.35
0.091,0.51,1.29,0.43,1.45
0.101,0.59,1.40,0.14,1.52
0.111,0.52,1.53,-0.18,1.62
0.121,0.37,1.69,-0.67,1.85
0.131,0.27,1.93,-1.25,2.32
0.141,0.30,2.22,-1.61,2.76
0.151,0.36,2.26,-1.68,2.84
0.161,0.41,2.19,-1.46,2.66
0.171,0.47,2.08,-0.96,2.34
0.181,0.55,1.87,-0.33,1.98
0.192,0.71,1.64,0.32,1.81
0.202,0.83,1.39,0.66,1.75
0.212,0.83,1.20,0.60,1.57
0.222,0.66,1.17,0.16,1.36
0.232,0.44,1.20,-0.49,1.37
0.242,0.27,1.25,-1.15,1.72
0.252,0.17,1.30,-1.63,2.09
0.262,0.25,1.30,-1.75,2.19
0.272,0.51,1.28,-1.38,1.95
0.282,0.83,1.13,-0.82,1.63
0.292,0.98,0.91,-0.40,1.39
0.302,0.95,0.76,-0.18,1.23
0.313,0.88,0.61,-0.15,1.08
0.322,0.79,0.48,-0.32,0.98
0.333,0.70,0.47,-0.67,1.08
0.343,0.68,0.50,-1.09,1.38
0.353,0.72,0.54,-1.41,1.67
0.363,0.77,0.47,-1.67,1.90
0.373,0.76,0.32,-1.74,1.92
0.383,0.75,0.17,-1.58,1.76
0.393,0.67,-0.02,-1.31,1.47
0.403,0.64,-0.16,-1.03,1.23
0.413,0.73,-0.27,-0.80,1.11
0.423,0.77,-0.50,-0.65,1.13
0.433,0.71,-0.70,-0.61,1.17
0.443,0.66,-0.82,-0.57,1.19
0.454,0.69,-0.85,-0.51,1.21
0.464,0.74,-0.83,-0.62,1.28
0.474,0.78,-0.81,-0.74,1.35
0.484,0.77,-0.92,-0.80,1.44
0.494,0.64,-1.07,-0.85,1.51
0.504,0.55,-1.22,-0.79,1.56
0.514,0.45,-1.24,-0.52,1.42
0.524,0.48,-1.10,-0.08,1.20
0.534,0.77,-1.02,0.23,1.30
0.544,1.08,-1.10,0.29,1.57
0.554,1.14,-0.99,0.31,1.55
0.564,1.26,-0.90,0.19,1.56
0.575,1.37,-0.75,-0.19,1.57
0.584,1.37,-0.63,-0.76,1.68
0.595,1.07,-0.55,-1.04,1.59
0.605,0.69,-0.42,-0.90,1.21
0.615,0.32,-0.45,-0.63,0.84
0.625,0.32,-0.72,-0.27,0.83
0.635,0.87,-0.81,-0.47,1.28
0.645,1.05,-0.67,-0.79,1.47
0.655,0.93,-0.32,-1.11,1.49
0.665,0.79,0.08,-1.38,1.59
0.675,0.88,0.73,-1.36,1.78
0.685,0.94,1.29,-1.29,2.05
0.696,0.59,1.82,-1.30,2.31
0.705,-0.18,2.17,-1.22,2.50
0.716,-0.21,1.86,-0.97,2.11
0.726,0.25,1.16,-0.88,1.48
0.736,0.30,0.86,-0.71,1.16
0.746,0.09,0.87,-0.36,0.95
0.756,0.11,0.94,-0.07,0.95
0.766,0.37,1.10,0.05,1.17
0.776,0.43,1.21,-0.02,1.28
0.786,0.50,1.18,-0.04,1.28
0.796,0.41,1.12,0.16,1.21
0.806,0.22,0.86,0.31,0.94
0.816,0.39,0.40,0.77,0.95
0.826,0.65,0.28,1.51,1.67
0.837,0.71,0.42,1.87,2.05
0.847,0.53,0.34,1.81,1.92
0.857,0.16,0.07,1.48,1.50
0.867,-0.38,-0.32,0.82,0.96
0.877,-0.74,-0.62,-0.08,0.97
0.887,-0.74,-0.71,-0.63,1.20
0.897,-0.36,-0.25,-1.20,1.28
0.907,0.56,0.92,-2.14,2.40
0.917,1.74,1.02,-2.63,3.32
0.927,1.66,0.03,-2.63,3.11
0.937,1.11,-0.06,-2.76,2.97
0.947,-0.09,0.20,-2.42,2.43
0.958,-1.89,0.33,-0.92,2.13
0.968,-1.71,0.16,-0.28,1.74
0.978,-1.00,0.17,-0.71,1.24
0.988,-0.96,0.52,-1.14,1.58
0.998,-0.90,0.79,-1.35,1.81
1.008,-0.71,0.98,-1.52,1.95
1.018,-0.55,1.28,-1.67,2.17
1.028,-0.71,1.54,-1.58,2.32
1.038,-1.00,1.62,-1.20,2.25
1.048,-1.37,1.52,-0.28,2.06
1.058,-1.24,1.22,0.53,1.82
1.068,-0.43,0.80,0.83,1.23
1.078,0.20,0.40,1.05,1.14
1.089,0.71,0.08,1.19,1.39
1.099,1.34,-0.02,1.49,2.00
1.109,1.41,0.10,1.83,2.31
1.119,0.96,0.44,1.76,2.05
1.129,0.36,0.68,1.32,1.53
1.139,-0.17,0.57,0.70,0.92
1.149,-0.74,0.47,-0.08,0.88
1.159,-1.54,0.64,-0.47,1.73
1.169,-1.91,0.77,-0.49,2.12
1.179,-1.32,0.75,-0.57,1.62
1.189,-0.36,0.45,-1.05,1.20
1.199,0.22,0.37,-1.39,1.46
1.209,0.28,0.44,-1.16,1.28
1.220,-0.12,0.56,-0.42,0.71
1.229,-0.18,0.54,0.19,0.60
1.240,-0.13,0.30,0.53,0.63
1.250,-0.23,-0.05,0.15,0.28
1.260,-0.40,-0.07,-0.34,0.53
1.270,-0.57,0.08,-0.77,0.96
1.280,-0.75,0.12,-1.07,1.31
1.290,-0.93,0.14,-0.98,1.35
1.300,-0.95,0.08,-0.68,1.17
1.310,-0.74,-0.02,-0.38,0.83
1.320,-0.42,-0.05,-0.06,0.43
1.330,-0.18,-0.16,0.33,0.41
1.341,0.02,-0.40,0.66,0.77
1.350,-0.75,-0.69,0.12,1.03
1.361,-1.02,-0.82,-0.07,1.31
1.371,-1.14,-0.89,-0.13,1.45
1.381,-1.22,-0.90,-0.37,1.56
1.391,-1.22,-0.55,-0.61,1.47
1.401,-1.09,-0.12,-1.00,1.49
1.411,-0.99,0.19,-1.05,1.45
1.421,-0.93,0.21,-0.64,1.14
1.431,-0.89,-0.49,-0.29,1.06
1.441,-0.60,-0.73,0.02,0.95
1.451,0.00,0.14,0.09,0.17
1.462,0.30,0.62,-0.00,0.69
1.471,0.33,0.48,-0.10,0.59
1.482,0.03,0.29,0.11,0.31
1.492,-0.41,-0.30,0.28,0.58
1.502,-1.19,-1.06,0.38,1.64
1.512,-2.44,-1.74,0.05,3.00
1.522,-3.19,-2.16,-0.72,3.92
1.532,-3.03,-1.68,-1.46,3.76
1.542,-2.82,-0.39,-1.52,3.22
1.552,-2.65,-0.01,-0.93,2.81
1.562,-2.60,-0.15,-0.43,2.64
1.572,-1.59,0.23,-0.31,1.64
1.582,-0.35,0.18,-0.35,0.53
1.592,-0.99,1.36,-0.07,1.68
1.603,-2.00,2.91,-0.07,3.54
1.613,-2.02,3.14,-0.45,3.76
1.623,-1.29,2.37,-0.10,2.70
1.633,-0.43,1.49,1.15,1.93
1.643,-0.06,1.41,2.05,2.49
1.653,0.19,1.58,2.78,3.20
1.663,0.43,1.40,3.29,3.60
1.673,0.60,1.20,3.49,3.74
1.683,0.68,1.32,3.18,3.51
1.693,0.50,1.38,2.56,2.95
1.703,0.24,1.37,1.74,2.23
1.713,0.13,1.42,0.90,1.69
1.723,0.24,1.29,0.39,1.36
1.734,0.27,1.03,0.17,1.08
1.744,0.20,0.79,0.12,0.83
1.754,0.10,0.46,0.14,0.49
1.764,0.03,0.14,0.12,0.19
1.774,-0.23,0.08,0.03,0.24
1.784,-0.61,0.07,-0.06,0.62
1.794,-0.80,-0.15,-0.19,0.83
1.804,-0.86,-0.35,-0.33,0.99
1.814,-1.03,-0.51,-0.40,1.22
1.824,-1.17,-0.67,-0.48,1.43
1.834,-1.18,-0.79,-0.65,1.56
1.845,-1.02,-0.79,-0.80,1.52
1.854,-0.82,-0.80,-0.87,1.44
1.865,-0.77,-0.83,-0.89,1.44
1.875,-0.84,-0.89,-0.94,1.54
1.885,-0.83,-0.96,-1.06,1.65
1.895,-0.76,-1.00,-1.04,1.63
1.905,-0.60,-0.98,-0.82,1.41
1.915,-0.36,-0.96,-0.33,1.08
1.925,-0.42,-0.88,-0.07,0.98
1.935,-0.52,-0.70,0.09,0.88
1.945,-0.56,-0.61,0.13,0.84
1.955,-0.58,-0.41,0.01,0.71
1.965,-0.49,-0.15,-0.15,0.54
1.975,-0.38,0.00,-0.34,0.51
1.986,-0.14,0.03,-0.38,0.41
1.996,0.04,0.03,-0.25,0.26
2.006,0.31,0.07,-0.18,0.37
2.016,0.53,-0.11,-0.08,0.55
2.026,0.59,-0.29,-0.18,0.68
2.036,0.89,-0.26,-0.33,0.99
2.046,1.19,-0.19,-0.41,1.27
2.056,1.23,-0.21,-0.54,1.36
2.066,1.11,-0.33,-0.83,1.43
2.076,0.88,-0.50,-1.05,1.46
2.086,0.71,-0.61,-1.13,1.47
2.096,0.71,-0.59,-1.04,1.39
2.107,0.62,-0.63,-0.65,1.10
2.116,0.41,-0.66,-0.13,0.79
2.127,0.49,-0.64,0.07,0.81
2.137,0.75,-0.64,0.19,1.01
2.147,0.81,-0.59,0.18,1.02
2.157,0.60,-0.61,0.08,0.86
2.167,0.38,-0.69,-0.01,0.79
2.177,0.07,-0.77,-0.18,0.80
2.187,-0.04,-0.82,-0.35,0.89
2.197,-0.00,-0.86,-0.47,0.98
2.207,0.09,-0.96,-0.47,1.07
2.217,0.18,-1.03,-0.43,1.13
2.228,0.44,-1.09,-0.22,1.20
2.238,0.81,-0.98,0.02,1.27
2.248,1.02,-0.75,0.14,1.27
2.258,1.26,-0.66,0.10,1.42
2.268,1.33,-0.56,-0.04,1.45
2.278,1.38,-0.45,-0.14,1.46
2.288,1.45,-0.39,-0.19,1.51
2.298,1.61,-0.22,-0.36,1.67
2.308,1.55,0.10,-0.58,1.66
2.318,1.31,0.30,-0.70,1.52
2.328,1.21,0.42,-0.76,1.49
2.338,1.30,0.53,-0.61,1.53
2.348,1.76,0.66,-0.33,1.91
2.358,2.16,0.83,0.04,2.31
2.369,2.50,1.01,0.29,2.72
2.379,3.00,1.14,0.55,3.26
2.389,3.12,1.14,0.89,3.44
2.399,2.92,1.13,1.06,3.31
2.409,2.67,1.09,1.06,3.07
2.419,2.25,0.97,1.00,2.64
2.429,1.94,0.82,0.81,2.26
2.439,1.77,0.67,0.57,1.98
2.449,1.57,0.57,0.37,1.71
2.459,1.63,0.54,0.12,1.72
2.469,1.74,0.48,-0.06,1.81
2.479,1.73,0.44,-0.15,1.79
2.489,1.77,0.34,-0.24,1.82
2.499,1.82,0.16,-0.45,1.88
2.510,2.06,-0.13,-0.91,2.25
2.520,1.97,-0.35,-1.19,2.33
2.530,1.60,-0.42,-1.13,2.01
2.540,1.34,-0.43,-1.05,1.76
2.550,1.02,-0.42,-0.95,1.46
2.560,0.63,-0.42,-0.75,1.06
2.570,0.51,-0.34,-0.80,1.01
2.580,0.33,-0.20,-0.56,0.68
2.590,0.32,-0.09,-0.39,0.51
2.600,0.56,-0.09,-0.33,0.66
2.611,1.01,-0.08,-0.27,1.05
2.620,1.27,-0.02,-0.20,1.28
2.631,1.31,-0.00,-0.32,1.35
2.641,1.22,-0.04,-0.51,1.32
2.651,0.98,-0.06,-0.61,1.16
2.661,0.66,-0.16,-0.57,0.89
2.671,0.45,-0.21,-0.59,0.77
2.681,0.42,-0.23,-0.60,0.77
2.691,0.46,-0.24,-0.52,0.73
2.701,0.50,-0.23,-0.32,0.63
2.711,0.60,-0.17,-0.21,0.66
2.721,0.74,-0.14,-0.36,0.83
2.731,1.00,-0.08,-0.51,1.12
2.741,1.07,0.05,-0.54,1.20
2.751,1.04,0.18,-0.52,1.17
2.762,0.95,0.15,-0.52,1.09
2.772,0.64,-0.01,-0.49,0.80
2.782,0.36,-0.18,-0.46,0.61
2.792,0.26,-0.37,-0.39,0.60
2.802,0.11,-0.46,-0.18,0.51
2.812,0.03,-0.49,0.01,0.49
2.822,0.01,-0.47,0.09,0.48
2.832,0.23,-0.34,0.04,0.41
2.842,0.39,-0.21,-0.11,0.46
2.852,0.33,-0.22,-0.29,0.49
2.862,0.14,-0.28,-0.44,0.54
2.873,0.03,-0.33,-0.54,0.63
2.882,0.04,-0.38,-0.59,0.70
2.893,0.01,-0.31,-0.52,0.60
2.903,-0.01,-0.20,-0.51,0.55
2.913,-0.06,-0.09,-0.54,0.55
2.923,-0.21,-0.00,-0.56,0.60
2.933,-0.23,0.08,-0.62,0.67
2.943,-0.29,0.12,-0.64,0.72
2.953,-0.35,0.18,-0.51,0.64
2.963,-0.40,0.22,-0.33,0.56
2.973,-0.42,0.18,-0.13,0.47
2.983,-0.52,0.10,0.03,0.53
2.994,-0.55,-0.01,0.22,0.60
3.003,-0.55,-0.06,0.45,0.71
3.014,-0.60,-0.18,0.71,0.95
3.024,-0.64,-0.32,0.87,1.13
3.034,-0.69,-0.33,0.92,1.19
3.044,-0.72,-0.26,0.89,1.17
3.054,-0.84,-0.22,0.81,1.19
3.064,-0.96,-0.21,0.73,1.22
3.074,-0.99,-0.19,0.61,1.18
3.084,-1.00,-0.13,0.49,1.12
3.094,-0.93,-0.11,0.39,1.01
3.104,-0.89,-0.11,0.37,0.97
3.115,-0.85,-0.07,0.37,0.93
3.124,-0.87,-0.04,0.38,0.95
3.135,-0.96,-0.08,0.33,1.02
3.145,-1.05,-0.09,0.24,1.08
3.155,-1.04,-0.06,0.13,1.05
3.165,-1.00,0.01,0.05,1.00
3.175,-1.03,-0.03,0.03,1.03
3.185,-1.05,-0.09,0.02,1.05
3.195,-1.03,-0.16,0.13,1.05
3.205,-0.97,-0.18,0.30,1.03
3.215,-0.92,-0.22,0.51,1.07
3.225,-0.80,-0.21,0.67,1.06
3.235,-0.79,-0.20,0.78,1.13
3.245,-0.91,-0.10,0.78,1.20
3.256,-1.03,-0.05,0.63,1.21
3.265,-1.15,0.08,0.42,1.23
3.276,-1.26,0.29,0.22,1.31
3.286,-1.49,0.43,0.07,1.55
3.296,-1.65,0.55,-0.05,1.74
3.306,-1.69,0.66,-0.09,1.81
3.316,-1.52,0.85,-0.04,1.75
3.326,-1.22,1.09,0.01,1.64
3.336,-0.93,1.16,0.06,1.49
3.346,-0.77,1.24,0.13,1.46
3.356,-0.77,1.19,0.19,1.43
3.366,-0.87,1.09,0.19,1.40
3.377,-0.97,1.05,0.12,1.44
3.386,-1.10,0.98,0.04,1.47
3.397,-1.21,0.92,-0.05,1.52
3.407,-1.09,0.88,-0.26,1.43
3.417,-0.90,0.84,-0.36,1.28
3.427,-0.77,0.63,-0.32,1.05
3.437,-0.65,0.33,-0.14,0.74
3.447,-0.55,-0.01,0.15,0.57
3.457,-0.55,-0.23,0.43,0.73
3.467,-0.71,-0.34,0.55,0.97
3.477,-0.94,-0.28,0.39,1.05
3.487,-1.30,-0.20,0.16,1.33
3.497,-1.65,-0.09,-0.16,1.66
3.507,-1.58,0.05,-0.48,1.65
3.517,-1.39,0.22,-0.55,1.51
3.528,-1.27,0.20,-0.45,1.36
3.538,-1.20,0.03,-0.20,1.21
3.548,-0.99,-0.13,0.08,1.00
3.558,-0.81,-0.21,0.38,0.92
3.568,-0.75,-0.28,0.67,1.05
3.578,-0.83,-0.33,0.77,1.18
3.588,-0.97,-0.28,0.61,1.18
3.598,-1.01,-0.23,0.38,1.10
3.608,-0.97,-0.16,0.16,0.99
3.618,-0.93,-0.11,0.04,0.94
3.628,-0.95,-0.14,-0.01,0.96
3.638,-0.98,-0.31,-0.05,1.03
3.648,-1.03,-0.41,-0.07,1.12
3.659,-0.97,-0.49,-0.04,1.08
3.669,-0.95,-0.50,0.06,1.08
3.679,-1.05,-0.50,0.15,1.17
3.689,-1.10,-0.45,0.14,1.20
3.699,-1.00,-0.33,0.03,1.06
3.709,-0.90,-0.13,-0.04,0.91
3.719,-0.84,-0.06,-0.00,0.84
3.729,-0.86,-0.09,0.06,0.87
3.739,-0.86,-0.10,0.15,0.88
3.749,-0.72,-0.26,0.30,0.82
3.759,-0.78,-0.40,0.46,0.99
3.769,-0.84,-0.32,0.61,1.09
3.780,-0.79,-0.30,0.64,1.06
3.790,-0.76,-0.37,0.60,1.04
3.800,-0.67,-0.41,0.80,1.12
3.810,-0.38,-0.38,0.81,0.97
3.820,-0.23,-0.17,0.46,0.54
3.830,-0.40,-0.04,0.19,0.44
3.840,-0.61,-0.00,-0.02,0.62
3.850,-0.53,-0.04,0.02,0.53
3.860,-0.07,-0.08,0.21,0.23
3.870,0.38,-0.21,0.50,0.67
3.880,0.50,-0.33,0.66,0.89
3.890,0.79,0.16,0.61,1.01
3.900,1.11,0.27,0.25,1.17
3.911,0.90,0.03,-0.17,0.91
3.921,0.66,0.02,-0.31,0.73
3.931,0.38,-0.05,-0.44,0.58
3.941,0.05,-0.35,-0.47,0.59
3.951,0.05,-0.61,-0.24,0.66
3.961,0.34,-0.64,0.22,0.75
3.971,0.75,-0.63,0.59,1.15
3.981,1.04,-0.44,0.82,1.39
3.991,1.13,-0.25,0.66,1.33
4.001,0.80,-0.32,0.32,0.92
4.011,0.55,-0.57,-0.13,0.80
4.021,0.25,-0.66,-0.57,0.90
4.031,0.20,-0.67,-0.81,1.07
4.042,0.53,-0.59,-0.80,1.12
4.051,0.92,-0.22,-0.72,1.19
4.062,1.30,0.06,-0.60,1.44
4.072,1.47,0.16,-0.53,1.57
4.082,1.41,0.23,-0.44,1.49
4.092,1.33,0.26,-0.38,1.41
4.102,1.21,0.19,-0.30,1.26
4.112,1.09,0.08,-0.30,1.13
4.122,1.10,0.14,-0.42,1.19
4.132,1.15,0.31,-0.53,1.31
4.142,1.23,0.34,-0.65,1.43
4.152,1.22,0.32,-0.68,1.43
4.163,1.30,0.37,-0.74,1.54
4.172,1.35,0.60,-0.79,1.67
4.183,1.43,0.83,-0.79,1.84
4.193,1.43,0.56,-0.56,1.63
4.203,1.07,0.12,-0.08,1.08
4.213,1.06,-0.07,0.17,1.08
4.223,1.28,-0.13,0.16,1.29
4.233,1.48,0.01,-0.01,1.48
4.243,1.73,0.33,-0.11,1.77
4.253,2.17,0.66,-0.14,2.28
4.263,2.64,1.21,0.08,2.90
4.273,2.91,1.41,0.51,3.27
4.284,2.74,1.14,0.64,3.04
4.294,2.53,0.87,0.41,2.71
4.304,2.28,0.67,0.13,2.38
4.314,2.03,0.49,-0.15,2.09
4.324,1.80,0.25,-0.61,1.92
4.334,1.57,-0.01,-1.08,1.91
4.344,1.36,-0.15,-1.39,1.95
4.354,1.34,-0.19,-1.61,2.11
4.364,1.40,-0.12,-1.63,2.15
4.374,1.37,0.04,-1.51,2.04
4.384,1.31,-0.02,-1.13,1.73
4.394,1.28,-0.09,-0.74,1.48
4.404,1.15,-0.02,-0.64,1.32
4.414,1.02,0.00,-0.55,1.15
4.425,0.96,-0.04,-0.45,1.06
4.435,0.86,0.14,-0.50,1.00
4.445,0.84,0.27,-0.65,1.09
4.455,0.98,0.29,-0.97,1.41
4.465,1.03,0.26,-1.27,1.65
4.475,0.85,0.30,-1.38,1.65
4.485,0.81,0.25,-1.25,1.51
4.495,0.72,0.14,-0.84,1.11
4.505,0.62,-0.02,-0.49,0.79
4.515,0.50,-0.15,-0.27,0.59
4.525,0.43,-0.18,-0.15,0.49
4.535,0.36,-0.23,-0.28,0.51
4.546,0.13,-0.26,-0.54,0.61
4.556,0.11,-0.29,-0.81,0.87
4.566,0.07,-0.31,-1.01,1.06
4.576,0.08,-0.25,-1.11,1.14
4.586,0.28,-0.17,-1.05,1.10
4.596,0.43,-0.15,-0.89,1.00
4.606,0.46,-0.10,-0.80,0.93
4.616,0.60,-0.01,-0.79,0.99
4.626,0.79,0.15,-0.75,1.10
4.636,0.90,0.23,-0.67,1.15
4.646,1.00,0.22,-0.54,1.16
4.656,1.14,0.22,-0.35,1.22
4.666,1.12,0.27,-0.13,1.16
4.677,1.02,0.25,-0.01,1.05
4.687,0.90,0.14,0.00,0.91
4.697,0.70,0.02,-0.04,0.71
4.707,0.62,-0.11,-0.08,0.64
4.717,0.65,-0.09,-0.07,0.66
4.727,0.45,-0.08,-0.07,0.46
4.737,0.30,-0.08,-0.18,0.36
4.747,0.28,-0.01,-0.30,0.41
4.757,0.21,0.01,-0.36,0.41
4.767,0.17,0.04,-0.33,0.37
4.777,0.24,0.02,-0.19,0.31
4.787,0.23,0.03,0.11,0.26
4.797,0.12,-0.03,0.36,0.38
4.808,-0.07,-0.18,0.49,0.52
4.817,-0.33,-0.33,0.46,0.65
4.828,-0.59,-0.36,0.33,0.77
4.838,-0.85,-0.34,0.10,0.92
4.848,-1.00,-0.33,-0.13,1.06
4.858,-1.07,-0.30,-0.24,1.14
4.868,-1.02,-0.23,-0.26,1.08
4.878,-0.96,-0.16,-0.21,1.00
4.888,-0.77,-0.12,-0.19,0.80
4.898,-0.65,-0.12,-0.13,0.68
4.908,-0.70,-0.14,-0.11,0.72
4.918,-0.79,-0.20,-0.17,0.84
4.929,-0.93,-0.25,-0.16,0.98
4.938,-0.98,-0.29,-0.06,1.03
4.949,-1.00,-0.29,0.00,1.04
4.959,-1.03,-0.33,-0.02,1.08
4.969,-1.04,-0.32,-0.13,1.10
4.979,-1.04,-0.32,-0.23,1.12
4.989,-1.00,-0.39,-0.38,1.14
4.999,-0.87,-0.49,-0.45,1.10
5.009,-0.85,-0.57,-0.44,1.11
5.019,-0.87,-0.71,-0.43,1.20
5.029,-0.94,-0.93,-0.48,1.41
5.039,-1.06,-1.03,-0.46,1.55
5.049,-1.12,-1.12,-0.45,1.64
5.059,-1.19,-1.16,-0.46,1.72
5.070,-1.25,-1.16,-0.42,1.75
5.080,-1.24,-1.09,-0.30,1.68
5.090,-1.31,-1.03,-0.13,1.67
5.100,-1.27,-0.92,-0.04,1.57
5.110,-1.29,-0.72,-0.01,1.48
5.120,-1.39,-0.48,-0.08,1.48
5.130,-1.52,-0.23,-0.29,1.56
5.140,-1.66,0.05,-0.48,1.73
5.150,-1.81,0.29,-0.48,1.90
5.160,-1.79,0.56,-0.32,1.90
5.170,-1.59,0.80,-0.06,1.78
5.180,-1.37,0.96,0.23,1.68
5.191,-1.16,1.06,0.43,1.63
5.201,-0.84,1.19,0.59,1.57
5.211,-0.69,1.31,0.58,1.59
5.221,-0.70,1.40,0.34,1.61
5.231,-0.65,1.47,-0.12,1.61
5.241,-0.67,1.51,-0.59,1.75
5.251,-0.83,1.60,-0.82,1.98
5.261,-0.96,1.47,-0.58,1.85
5.271,-0.92,1.20,0.01,1.51
5.281,-0.84,0.93,0.72,1.44
5.291,-0.82,0.69,1.39,1.75
5.301,-0.70,0.58,1.95,2.16
5.312,-0.70,0.42,2.13,2.28
5.321,-1.00,0.37,2.00,2.26
5.332,-1.22,0.40,1.47,1.95
5.342,-1.39,0.59,0.94,1.78
5.352,-1.54,0.77,0.76,1.88
5.362,-1.32,0.79,0.89,1.78
5.372,-1.08,0.57,1.35,1.82
5.382,-0.78,0.51,1.63,1.87
5.392,-0.46,0.54,1.65,1.79
5.402,-0.44,0.48,1.62,1.74
5.412,-0.47,0.32,1.48,1.58
5.422,-0.53,0.22,1.29,1.42
5.432,-0.61,0.15,1.25,1.40
5.442,-0.64,0.12,1.19,1.36
5.453,-0.78,0.06,1.19,1.42
5.463,-1.04,-0.12,1.23,1.62
5.473,-1.10,-0.32,1.29,1.72
5.483,-0.97,-0.41,1.36,1.72
5.493,-0.78,-0.43,1.37,1.63
5.503,-0.71,-0.35,1.25,1.48
5.513,-0.66,-0.32,1.11,1.33
5.523,-0.64,-0.41,1.00,1.25
5.533,-0.89,-0.45,0.92,1.35
5.543,-1.05,-0.48,0.89,1.45
5.553,-1.13,-0.53,0.87,1.52
5.563,-1.17,-0.53,0.90,1.57
5.574,-1.12,-0.51,1.05,1.61
5.584,-1.08,-0.54,1.11,1.64
5.594,-1.12,-0.58,1.10,1.68
5.604,-0.98,-0.57,1.03,1.54
5.614,-0.89,-0.48,0.98,1.41
5.624,-0.91,-0.47,0.85,1.33
5.634,-0.84,-0.47,0.70,1.19
5.644,-0.76,-0.35,0.70,1.09
5.654,-0.72,-0.23,0.85,1.14
5.664,-0.69,-0.18,1.01,1.24
5.674,-0.57,-0.11,1.11,1.26
5.684,-0.38,-0.04,1.25,1.31
5.695,-0.17,0.07,1.41,1.42
5.705,-0.01,0.13,1.48,1.48
5.715,0.17,0.16,1.49,1.51
5.725,0.36,0.22,1.33,1.40
5.735,0.43,0.27,1.12,1.23
5.745,0.54,0.17,0.88,1.05
5.755,0.54,0.09,0.59,0.80
5.765,0.48,0.03,0.20,0.52
5.775,0.43,0.02,-0.21,0.48
5.785,0.37,-0.03,-0.51,0.63
5.795,0.37,-0.11,-0.61,0.73
5.805,0.33,-0.13,-0.54,0.65
5.815,0.43,-0.25,-0.45,0.67
5.825,0.52,-0.30,-0.29,0.67
5.836,0.44,-0.48,-0.40,0.76
5.846,0.40,-0.52,-0.47,0.81
5.856,0.44,-0.54,-0.44,0.82
5.866,0.44,-0.65,-0.39,0.88
5.876,0.45,-0.72,-0.40,0.94
5.886,0.54,-0.67,-0.46,0.98
5.896,0.65,-0.61,-0.52,1.03
5.906,0.80,-0.59,-0.55,1.13
5.916,0.96,-0.51,-0.51,1.20
5.926,1.11,-0.45,-0.45,1.28
5.936,1.26,-0.45,-0.41,1.40
5.946,1.30,-0.42,-0.47,1.44
5.957,1.25,-0.45,-0.62,1.47
5.967,1.14,-0.44,-0.87,1.50
5.977,1.02,-0.39,-1.05,1.51
5.987,0.92,-0.34,-1.16,1.52
5.997,0.85,-0.36,-1.15,1.47
6.007,0.67,-0.39,-1.09,1.33
6.017,0.52,-0.42,-1.08,1.27
6.027,0.44,-0.38,-1.08,1.22
6.037,0.47,-0.31,-1.07,1.21
6.047,0.55,-0.18,-0.99,1.14
6.057,0.61,-0.00,-0.85,1.04
6.067,0.81,0.11,-0.62,1.03
6.077,0.95,0.28,-0.31,1.04
6.087,1.09,0.47,-0.18,1.20
6.098,1.28,0.68,-0.12,1.46
6.108,1.58,0.99,-0.06,1.87
6.118,1.90,1.20,-0.03,2.25
6.128,2.18,1.32,-0.12,2.55
6.138,2.28,1.41,-0.36,2.70
6.148,2.34,1.50,-0.72,2.87
6.158,2.17,1.51,-1.13,2.88
6.168,1.86,1.48,-1.45,2.79
6.178,1.72,1.39,-1.49,2.67
6.188,1.55,1.29,-1.25,2.37
6.198,1.55,1.15,-0.95,2.15
6.208,1.70,0.98,-0.57,2.04
6.219,1.81,0.89,-0.20,2.03
6.229,1.91,0.78,-0.01,2.06
6.239,1.97,0.67,-0.17,2.09
6.249,1.94,0.61,-0.48,2.09
6.259,1.74,0.44,-0.88,2.00
6.269,1.59,0.23,-1.11,1.96
6.279,1.54,0.09,-1.12,1.91
6.289,1.57,-0.03,-0.97,1.85
6.299,1.48,-0.23,-0.78,1.69
6.309,1.30,-0.42,-0.71,1.54
6.319,1.14,-0.56,-0.73,1.47
6.329,1.03,-0.61,-0.78,1.43
6.339,1.03,-0.62,-0.86,1.48
6.349,1.05,-0.58,-0.94,1.53
6.360,0.90,-0.59,-1.10,1.54
6.370,0.70,-0.59,-1.30,1.59
6.380,0.53,-0.62,-1.45,1.66
6.390,0.47,-0.66,-1.40,1.62
6.400,0.46,-0.68,-1.26,1.50
6.410,0.50,-0.69,-1.05,1.35
6.420,0.61,-0.70,-0.86,1.26
6.430,0.46,-0.70,-0.76,1.13
6.440,0.33,-0.69,-0.78,1.10
6.450,0.29,-0.64,-0.81,1.07
6.461,0.26,-0.50,-0.78,0.97
6.470,0.24,-0.43,-0.72,0.87
6.481,0.31,-0.42,-0.66,0.84
6.491,0.39,-0.36,-0.51,0.74
6.501,0.44,-0.27,-0.37,0.64
6.511,0.56,-0.23,-0.12,0.62
6.521,0.67,-0.18,0.04,0.70
6.531,0.67,-0.14,0.05,0.69
6.541,0.58,-0.25,0.02,0.63
6.551,0.41,-0.36,-0.03,0.55
6.561,0.30,-0.38,-0.09,0.50
6.571,0.20,-0.37,-0.10,0.43
6.581,0.02,-0.37,-0.09,0.38
6.591,-0.02,-0.34,-0.16,0.38
6.601,0.02,-0.24,-0.18,0.30
6.612,-0.05,-0.12,-0.26,0.29
6.622,-0.13,-0.08,-0.46,0.48
6.632,-0.14,0.00,-0.70,0.72
6.642,-0.11,0.13,-0.87,0.89
6.652,-0.12,0.20,-0.99,1.02
6.662,-0.12,0.24,-0.96,1.00
6.672,-0.04,0.29,-0.79,0.84
6.682,0.04,0.39,-0.57,0.69
6.692,0.19,0.46,-0.31,0.59
6.702,0.35,0.49,-0.10,0.61
6.712,0.47,0.47,0.13,0.68
6.723,0.45,0.36,0.35,0.67
6.733,0.31,0.20,0.49,0.61
6.743,0.05,-0.02,0.56,0.57
6.753,-0.19,-0.27,0.55,0.64
6.763,-0.50,-0.48,0.42,0.80
6.773,-0.80,-0.63,0.18,1.03
6.783,-1.00,-0.70,-0.01,1.22
6.793,-1.00,-0.74,-0.00,1.24
6.803,-0.89,-0.67,0.05,1.11
6.813,-0.79,-0.62,0.15,1.02
6.823,-0.70,-0.64,0.28,0.99
6.833,-0.76,-0.67,0.36,1.07
6.844,-0.93,-0.71,0.34,1.22
6.854,-1.09,-0.71,0.31,1.34
6.864,-1.33,-0.67,0.26,1.51
6.874,-1.40,-0.60,0.20,1.54
6.884,-1.43,-0.62,0.25,1.57
6.894,-1.44,-0.54,0.32,1.57
6.904,-1.26,-0.46,0.43,1.41
6.914,-0.98,-0.41,0.66,1.25
6.924,-0.78,-0.45,0.94,1.30
6.934,-0.67,-0.50,1.12,1.40
6.944,-0.62,-0.57,1.17,1.44
6.954,-0.67,-0.61,1.12,1.44
6.964,-0.85,-0.66,0.95,1.44
6.974,-1.01,-0.70,0.67,1.40
6.985,-0.98,-0.66,0.48,1.27
6.995,-0.91,-0.53,0.45,1.14
7.005,-0.95,-0.42,0.42,1.12
7.015,-1.02,-0.39,0.31,1.14
7.025,-1.01,-0.26,0.28,1.08
7.035,-0.97,-0.04,0.28,1.00
7.045,-0.86,0.16,0.32,0.93
7.055,-0.80,0.48,0.35,0.99
7.065,-0.84,0.83,0.22,1.20
7.075,-0.86,1.15,0.06,1.44
7.085,-0.87,1.51,-0.03,1.74
7.095,-0.80,1.79,0.01,1.96
7.105,-0.71,1.90,0.16,2.03
7.115,-0.50,1.93,0.40,2.04
7.126,-0.21,1.91,0.68,2.04
7.136,-0.02,1.84,0.89,2.04
7.146,0.06,1.71,0.96,1.96
7.156,-0.05,1.49,0.80,1.69
7.166,-0.43,1.17,0.51,1.34
7.176,-0.90,0.81,0.22,1.23
7.186,-1.34,0.44,0.04,1.41
7.196,-1.67,0.07,-0.05,1.67
7.206,-1.92,-0.28,-0.12,1.95
7.216,-2.13,-0.53,-0.19,2.21
7.226,-2.16,-0.69,-0.30,2.29
7.236,-2.10,-0.75,-0.30,2.25
7.247,-1.98,-0.67,-0.30,2.11
7.257,-1.76,-0.54,-0.21,1.85
7.267,-1.49,-0.43,-0.02,1.55
7.277,-1.09,-0.40,0.27,1.20
7.287,-0.73,-0.34,0.69,1.06
7.297,-0.49,-0.23,0.98,1.12
7.307,-0.31,-0.22,1.11,1.18
7.317,-0.21,-0.15,1.17,1.20
7.327,-0.11,-0.03,1.18,1.18
7.337,-0.11,0.03,1.12,1.13
7.347,-0.12,0.10,0.99,1.00
7.358,-0.15,0.17,0.85,0.88
7.368,-0.31,0.07,0.67,0.74
7.378,-0.43,-0.16,0.49,0.67
7.388,-0.49,-0.08,0.60,0.77
7.398,-0.48,-0.11,0.78,0.92
7.408,-0.41,-0.35,0.79,0.96
7.418,-0.57,-0.46,0.85,1.12
7.428,-0.88,-0.49,1.00,1.42
7.438,-1.08,-0.55,1.01,1.57
7.448,-1.31,-0.52,0.85,1.65
7.458,-1.48,-0.44,0.74,1.71
7.468,-1.51,-0.33,0.65,1.67
7.478,-1.44,-0.13,0.58,1.56
7.489,-1.32,0.04,0.56,1.43
7.498,-1.25,0.15,0.60,1.39
7.509,-1.20,0.23,0.60,1.36
7.519,-1.15,0.30,0.56,1.31
7.529,-1.02,0.37,0.66,1.26
7.539,-0.80,0.45,0.85,1.25
7.549,-0.52,0.56,1.00,1.26
7.559,-0.32,0.62,1.13,1.33
7.569,-0.18,0.70,1.18,1.38
7.579,-0.07,0.74,1.16,1.37
7.589,0.06,0.80,1.07,1.34
7.599,0.23,0.79,0.98,1.28
7.609,0.31,0.73,0.96,1.24
7.619,0.37,0.60,0.89,1.14
7.630,0.45,0.39,0.81,1.01
7.640,0.43,0.20,0.67,0.83
7.650,0.31,0.08,0.36,0.49
7.660,0.24,-0.01,0.03,0.24
7.670,0.21,-0.07,-0.27,0.35
7.680,0.06,-0.13,-0.56,0.58
7.690,-0.10,-0.18,-0.73,0.76
7.700,-0.10,-0.24,-0.65,0.70
7.710,-0.07,-0.36,-0.28,0.46
7.720,-0.04,-0.48,0.08,0.48
7.730,0.02,-0.60,0.36,0.70
7.740,0.18,-0.68,0.56,0.90
7.751,0.34,-0.68,0.70,1.03
7.761,0.64,-0.67,0.79,1.22
7.771,0.90,-0.61,0.64,1.26
7.781,1.03,-0.48,0.23,1.16
7.791,1.17,-0.32,-0.24,1.23
7.801,1.26,-0.16,-0.67,1.43
7.811,1.26,-0.08,-1.01,1.62
7.821,1.17,-0.08,-1.24,1.71
7.831,0.98,-0.11,-1.41,1.72
7.841,0.74,-0.20,-1.42,1.61
7.851,0.52,-0.29,-1.31,1.44
7.861,0.43,-0.30,-1.18,1.30
7.872,0.42,-0.21,-1.09,1.19
7.881,0.52,-0.07,-1.02,1.15
7.892,0.65,0.11,-1.01,1.20
7.902,0.76,0.24,-1.01,1.29
7.912,0.76,0.30,-1.06,1.33
7.922,0.64,0.29,-1.14,1.34
7.932,0.60,0.29,-1.21,1.38
7.942,0.70,0.31,-1.16,1.39
7.952,0.81,0.38,-0.98,1.33
7.962,0.96,0.48,-0.71,1.29
7.972,1.03,0.50,-0.56,1.27
7.982,1.08,0.49,-0.56,1.31
7.992,0.98,0.52,-0.67,1.30
8.002,0.86,0.56,-0.82,1.32
8.013,0.86,0.57,-0.95,1.40
8.023,0.85,0.60,-0.96,1.41
8.033,0.97,0.62,-0.89,1.45
8.043,1.13,0.63,-0.74,1.49
8.053,1.21,0.61,-0.56,1.47
8.063,1.24,0.50,-0.40,1.40
8.073,1.19,0.41,-0.32,1.30
8.083,1.11,0.28,-0.33,1.19
8.093,1.00,0.14,-0.36,1.08
8.103,1.01,0.09,-0.43,1.10
8.113,0.98,0.06,-0.43,1.07
8.123,1.08,-0.02,-0.45,1.17
8.134,1.26,-0.03,-0.44,1.33
8.144,1.44,-0.03,-0.42,1.50
8.154,1.47,-0.09,-0.50,1.56
8.164,1.55,-0.16,-0.59,1.67
8.174,1.58,-0.20,-0.64,1.71
8.184,1.51,-0.29,-0.67,1.68
8.194,1.43,-0.34,-0.68,1.62
8.204,1.32,-0.33,-0.64,1.51
8.214,1.29,-0.31,-0.55,1.44
8.224,1.32,-0.28,-0.41,1.41
8.234,1.41,-0.27,-0.20,1.45
8.244,1.49,-0.23,-0.04,1.51
8.254,1.53,-0.25,0.11,1.56
8.264,1.49,-0.28,0.21,1.53
8.275,1.42,-0.29,0.25,1.47
8.285,1.29,-0.34,0.23,1.36
8.295,1.19,-0.47,0.15,1.29
8.305,1.04,-0.56,0.04,1.18
8.315,0.90,-0.66,-0.15,1.13
8.325,0.86,-0.72,-0.36,1.18
8.335,0.84,-0.71,-0.59,1.25
8.345,0.77,-0.72,-0.80,1.32
8.355,0.61,-0.78,-1.02,1.42
8.365,0.43,-0.84,-1.16,1.50
8.376,0.31,-0.87,-1.24,1.54
8.385,0.22,-0.88,-1.30,1.59
8.396,0.16,-0.84,-1.35,1.60
8.406,0.18,-0.79,-1.35,1.57
8.416,0.14,-0.69,-1.39,1.55
8.426,0.10,-0.53,-1.41,1.51
8.436,0.03,-0.39,-1.34,1.39
8.446,0.05,-0.30,-1.18,1.22
8.456,0.00,-0.17,-1.05,1.07
8.466,0.06,-0.01,-0.80,0.80
8.476,0.29,0.24,-0.36,0.52
8.486,0.43,0.46,0.09,0.63
8.496,0.47,0.64,0.46,0.92
8.506,0.45,0.85,0.64,1.16
8.517,0.40,1.06,0.56,1.27
8.526,0.36,1.18,0.29,1.27
8.537,0.22,1.34,-0.11,1.36
8.547,0.09,1.44,-0.49,1.53
8.557,0.05,1.49,-0.71,1.65
8.567,0.10,1.46,-0.72,1.63
8.577,0.17,1.27,-0.53,1.39
8.587,0.32,0.98,-0.11,1.04
8.597,0.60,0.61,0.50,0.99
8.607,0.75,0.12,1.01,1.27
8.617,0.69,-0.25,1.28,1.48
8.627,0.51,-0.46,1.29,1.47
8.638,0.26,-0.67,0.77,1.05
8.647,-0.20,-0.72,-0.05,0.74
8.658,-0.67,-0.73,-0.76,1.25
8.668,-1.10,-0.77,-1.27,1.84
8.678,-1.36,-0.75,-1.64,2.26
8.688,-1.60,-0.63,-1.82,2.51
8.698,-1.79,-0.54,-1.81,2.60
8.708,-1.72,-0.50,-1.60,2.40
8.718,-1.55,-0.43,-1.23,2.03
8.728,-1.43,-0.41,-0.78,1.68
8.738,-1.35,-0.40,-0.31,1.44
8.748,-1.34,-0.36,0.11,1.39
8.758,-1.33,-0.35,0.43,1.44
8.768,-1.35,-0.43,0.70,1.58
8.779,-1.43,-0.47,0.98,1.79
8.789,-1.47,-0.45,1.19,1.94
8.799,-1.49,-0.41,1.34,2.04
8.809,-1.54,-0.31,1.49,2.17
8.819,-1.54,-0.16,1.62,2.24
8.829,-1.45,0.02,1.80,2.31
8.839,-1.23,0.21,1.97,2.33
8.849,-1.04,0.34,2.09,2.36
8.859,-0.93,0.42,2.02,2.26
8.869,-0.87,0.44,1.81,2.06
8.879,-0.85,0.43,1.48,1.76
8.890,-0.84,0.40,1.07,1.42
8.900,-0.74,0.42,0.72,1.11
8.910,-0.71,0.43,0.44,0.94
8.920,-0.69,0.44,0.17,0.84
8.929,-0.61,0.45,-0.09,0.77
8.940,-0.55,0.45,-0.22,0.74
8.950,-0.49,0.43,-0.28,0.71
8.960,-0.40,0.42,-0.26,0.63
8.970,-0.33,0.43,-0.15,0.56
8.980,-0.25,0.41,0.03,0.49
8.990,-0.22,0.38,0.26,0.51
9.000,-0.26,0.29,0.48,0.62
9.010,-0.29,0.11,0.65,0.72
9.021,-0.33,-0.05,0.74,0.81
9.031,-0.38,-0.17,0.76,0.86
9.041,-0.31,-0.22,0.80,0.88
9.051,-0.28,-0.17,0.83,0.89
9.061,-0.26,-0.19,0.74,0.80
9.071,-0.28,-0.23,0.51,0.63
9.081,-0.40,-0.31,0.24,0.56
9.091,-0.46,-0.40,-0.06,0.61
9.101,-0.54,-0.44,-0.39,0.80
9.111,-0.63,-0.41,-0.58,0.95
9.121,-0.79,-0.40,-0.67,1.11
9.131,-0.91,-0.47,-0.72,1.25
9.141,-1.02,-0.52,-0.66,1.32
9.151,-1.13,-0.54,-0.55,1.37
9.162,-1.24,-0.59,-0.51,1.47
9.172,-1.35,-0.62,-0.49,1.56
9.182,-1.44,-0.60,-0.45,1.62
9.192,-1.51,-0.53,-0.34,1.64
9.202,-1.63,-0.46,-0.23,1.71
9.212,-1.80,-0.35,-0.16,1.84
9.222,-1.97,-0.23,-0.09,1.98
9.232,-2.05,-0.10,-0.08,2.06
9.242,-1.93,0.11,-0.03,1.94
9.252,-1.70,0.29,0.09,1.73
9.262,-1.41,0.55,0.23,1.53
9.272,-1.17,0.85,0.36,1.49
9.283,-1.05,1.01,0.42,1.52
9.293,-0.93,1.19,0.40,1.57
9.303,-0.64,1.39,0.27,1.55
9.313,-0.41,1.46,0.11,1.52
9.323,-0.42,1.41,-0.15,1.48
9.333,-0.62,1.23,-0.43,1.44
9.343,-0.78,0.99,-0.57,1.38
9.353,-0.90,0.74,-0.45,1.25
9.363,-0.96,0.53,-0.13,1.11
9.373,-1.04,0.29,0.21,1.10
9.383,-1.13,0.09,0.47,1.23
9.393,-1.21,-0.05,0.74,1.42
9.404,-1.24,-0.17,1.05,1.63
9.413,-1.14,-0.16,1.32,1.76
9.424,-0.88,0.02,1.51,1.75
9.434,-0.61,0.13,1.59,1.71
9.444,-0.36,0.20,1.58,1.63
9.454,-0.15,0.26,1.44,1.47
9.464,-0.05,0.31,1.26,1.30
9.474,-0.03,0.38,1.13,1.19
9.484,0.02,0.40,0.95,1.03
9.494,0.12,0.42,0.82,0.93
9.504,0.22,0.38,0.79,0.90
9.514,0.35,0.33,0.78,0.91
9.524,0.41,0.30,0.72,0.88
9.534,0.41,0.20,0.67,0.81
9.545,0.31,0.02,0.53,0.61
9.555,0.05,-0.11,0.25,0.28
9.565,-0.30,-0.22,-0.05,0.37
9.575,-0.63,-0.36,-0.27,0.77
9.585,-0.90,-0.50,-0.32,1.08
9.595,-0.98,-0.55,-0.23,1.14
9.605,-0.95,-0.55,-0.02,1.10
9.615,-0.87,-0.56,0.14,1.04
9.625,-0.79,-0.52,0.21,0.97
9.635,-0.70,-0.48,0.18,0.87
9.645,-0.62,-0.45,0.18,0.78
9.655,-0.59,-0.40,0.27,0.76
9.666,-0.57,-0.37,0.29,0.74
9.676,-0.49,-0.38,0.21,0.65
9.686,-0.47,-0.33,0.13,0.58
9.696,-0.54,-0.30,0.02,0.62
9.706,-0.60,-0.28,-0.11,0.67
9.716,-0.59,-0.24,-0.21,0.67
9.726,-0.52,-0.15,-0.22,0.58
9.736,-0.44,-0.08,-0.13,0.47
9.746,-0.42,-0.08,0.00,0.43
9.756,-0.34,-0.11,0.15,0.39
9.766,-0.17,-0.11,0.31,0.37
9.776,0.03,-0.07,0.55,0.55
9.787,0.25,-0.05,0.70,0.74
9.796,0.43,-0.06,0.74,0.85
9.807,0.54,-0.08,0.63,0.83
9.817,0.52,-0.10,0.36,0.64
9.827,0.41,-0.11,-0.03,0.42
9.837,0.36,-0.12,-0.48,0.61
9.847,0.27,-0.12,-0.84,0.89
9.857,0.24,-0.09,-1.07,1.10
9.867,0.27,-0.08,-1.12,1.15
9.877,0.43,-0.12,-0.96,1.06
9.887,0.61,-0.11,-0.61,0.87
9.897,0.71,-0.16,-0.31,0.79
9.907,0.78,-0.28,-0.10,0.84
9.918,0.81,-0.38,0.08,0.90
9.928,0.77,-0.41,0.20,0.90
9.938,0.74,-0.48,0.25,0.92
9.948,0.84,-0.49,0.21,0.99
9.958,0.96,-0.43,0.18,1.06
9.968,1.01,-0.46,0.12,1.12
9.978,1.05,-0.52,0.11,1.17
9.988,1.10,-0.60,0.14,1.26
9.998,1.19,-0.69,0.15,1.38
10.008,1.29,-0.72,0.09,1.48
10.018,1.30,-0.77,-0.03,1.51
10.028,1.14,-0.86,-0.23,1.45
10.038,0.97,-0.92,-0.42,1.41
10.048,0.86,-0.88,-0.67,1.40
10.058,0.80,-0.77,-0.95,1.46
10.069,0.86,-0.59,-1.19,1.58
10.079,0.99,-0.38,-1.44,1.79
10.089,1.06,-0.19,-1.61,1.94
10.099,1.11,-0.06,-1.70,2.04
10.109,1.18,0.03,-1.67,2.05
10.119,1.17,0.10,-1.52,1.92
10.129,1.03,0.18,-1.30,1.67
10.139,1.03,0.26,-1.02,1.47
10.149,1.09,0.45,-0.77,1.41
10.159,1.18,0.63,-0.64,1.48
10.169,1.28,0.78,-0.50,1.58
10.179,1.42,0.92,-0.43,1.74
10.190,1.61,1.07,-0.41,1.98
10.200,1.72,1.23,-0.38,2.15
10.210,1.80,1.27,-0.32,2.23
10.220,1.97,1.29,-0.24,2.36
10.230,2.22,1.33,-0.13,2.59
10.240,2.36,1.28,-0.10,2.68
10.250,2.34,1.13,-0.13,2.60
10.260,2.16,0.91,-0.24,2.35
10.270,1.90,0.63,-0.46,2.05
10.280,1.68,0.37,-0.68,1.85
10.290,1.48,0.17,-0.85,1.72
10.300,1.35,0.02,-1.03,1.70
10.311,1.30,-0.10,-1.25,1.80
10.320,1.34,-0.13,-1.42,1.95
10.331,1.32,-0.08,-1.50,2.00
10.341,1.22,-0.14,-1.50,1.94
10.351,1.20,-0.26,-1.40,1.86
10.361,1.08,-0.30,-1.21,1.65
10.371,1.03,-0.34,-1.00,1.47
10.381,0.95,-0.41,-0.79,1.30
10.391,0.93,-0.40,-0.62,1.18
10.401,0.96,-0.36,-0.42,1.11
10.411,0.91,-0.42,-0.33,1.05
10.421,0.87,-0.45,-0.46,1.08
10.432,0.94,-0.38,-0.56,1.16
10.441,0.99,-0.33,-0.64,1.22
10.452,1.05,-0.32,-0.74,1.32
10.462,1.10,-0.30,-0.76,1.37
10.472,1.05,-0.31,-0.77,1.34
10.482,0.87,-0.38,-0.78,1.23
10.492,0.70,-0.46,-0.80,1.16
10.502,0.55,-0.48,-0.79,1.07
10.512,0.48,-0.47,-0.73,1.00
10.522,0.56,-0.43,-0.68,0.98
10.532,0.57,-0.40,-0.65,0.95
10.542,0.44,-0.43,-0.65,0.90
10.552,0.40,-0.43,-0.67,0.89
10.562,0.43,-0.40,-0.69,0.91
10.573,0.39,-0.42,-0.67,0.88
10.583,0.40,-0.38,-0.67,0.86
10.593,0.46,-0.34,-0.68,0.89
10.603,0.48,-0.33,-0.63,0.86
10.613,0.44,-0.30,-0.60,0.81
10.623,0.40,-0.30,-0.60,0.78
10.633,0.27,-0.33,-0.56,0.71
10.643,0.16,-0.37,-0.53,0.66
10.653,0.06,-0.40,-0.45,0.60
10.663,0.03,-0.37,-0.37,0.52
10.673,0.02,-0.28,-0.35,0.45
10.683,-0.04,-0.21,-0.38,0.44
10.694,-0.06,-0.16,-0.42,0.46
10.704,-0.12,-0.07,-0.45,0.47
10.714,-0.19,0.03,-0.58,0.61
10.724,-0.21,0.11,-0.67,0.71
10.734,-0.28,0.17,-0.61,0.69
10.744,-0.36,0.14,-0.50,0.63
10.754,-0.40,0.09,-0.30,0.51
10.764,-0.37,0.01,-0.05,0.37
10.774,-0.34,-0.07,0.20,0.41
10.784,-0.43,-0.22,0.44,0.65
10.794,-0.61,-0.43,0.64,0.98
10.804,-0.84,-0.57,0.76,1.27
10.815,-1.04,-0.67,0.82,1.48
10.824,-1.13,-0.68,0.84,1.56
10.835,-1.11,-0.62,0.91,1.56
10.845,-1.01,-0.55,0.93,1.47
10.855,-0.90,-0.49,1.03,1.45
10.865,-0.70,-0.50,1.03,1.34
10.875,-0.58,-0.49,0.97,1.23
10.885,-0.54,-0.49,0.91,1.16
10.895,-0.54,-0.48,0.84,1.11
10.905,-0.59,-0.41,0.77,1.06
10.915,-0.55,-0.30,0.59,0.86
10.925,-0.52,-0.19,0.39,0.67
10.935,-0.59,-0.08,0.21,0.63
10.946,-0.64,-0.02,0.04,0.64
10.956,-0.62,0.02,-0.08,0.63
10.966,-0.61,0.06,-0.06,0.61
10.976,-0.50,0.11,0.12,0.52
10.986,-0.39,0.10,0.45,0.60
10.996,-0.27,0.00,0.87,0.91
11.006,-0.24,-0.14,1.25,1.28
11.016,-0.29,-0.25,1.50,1.55
11.026,-0.40,-0.37,1.59,1.68
11.036,-0.60,-0.48,1.46,1.65
11.046,-0.82,-0.48,1.29,1.60
11.057,-0.93,-0.52,1.05,1.49
11.066,-1.06,-0.50,0.88,1.47
11.077,-1.18,-0.41,0.67,1.42
11.086,-1.20,-0.31,0.47,1.33
11.097,-1.23,-0.12,0.37,1.29
11.107,-1.32,0.12,0.34,1.37
11.117,-1.43,0.39,0.34,1.52
11.127,-1.38,0.65,0.46,1.60
11.137,-1.27,0.95,0.68,1.73
11.147,-1.15,1.23,0.89,1.90
11.157,-0.96,1.50,1.10,2.10
11.167,-0.82,1.79,1.23,2.32
11.177,-0.59,2.05,1.23,2.46
11.187,-0.49,2.22,1.06,2.51
11.198,-0.36,2.29,0.77,2.45
11.207,-0.49,2.26,0.46,2.36
11.218,-0.67,2.12,0.17,2.23
11.228,-0.87,1.87,0.01,2.06
11.238,-1.17,1.57,0.00,1.96
11.248,-1.44,1.17,0.06,1.85
11.258,-1.60,0.74,0.21,1.77
11.268,-1.77,0.41,0.36,1.85
11.278,-1.86,0.20,0.48,1.93
11.288,-1.83,0.07,0.49,1.90
11.298,-1.71,-0.02,0.47,1.78
11.308,-1.58,-0.02,0.39,1.62
11.318,-1.39,0.02,0.20,1.40
11.328,-1.22,0.00,0.02,1.22
11.338,-1.07,0.01,-0.08,1.08
11.348,-0.89,0.02,-0.10,0.90
11.359,-0.73,0.06,0.01,0.73
11.369,-0.59,0.06,0.20,0.63
11.379,-0.46,0.05,0.40,0.62
11.389,-0.42,0.05,0.61,0.74
11.399,-0.41,-0.03,0.77,0.87
11.409,-0.37,-0.15,0.91,1.00
11.419,-0.29,-0.18,1.01,1.06
11.429,-0.26,-0.22,1.02,1.08
11.439,-0.22,-0.27,0.96,1.02
11.449,-0.27,-0.33,0.79,0.90
11.459,-0.33,-0.39,0.50,0.72
11.469,-0.47,-0.41,0.26,0.68
11.480,-0.63,-0.46,0.04,0.78
11.490,-0.80,-0.49,-0.16,0.95
11.500,-0.94,-0.54,-0.24,1.11
11.510,-1.02,-0.51,-0.23,1.16
11.520,-1.00,-0.47,-0.14,1.11
11.530,-0.93,-0.43,0.06,1.03
11.540,-0.82,-0.42,0.32,0.97
11.550,-0.75,-0.36,0.53,0.99
11.560,-0.66,-0.25,0.62,0.95
11.570,-0.58,-0.16,0.65,0.89
11.581,-0.52,-0.07,0.59,0.79
11.590,-0.47,-0.02,0.51,0.70
11.601,-0.39,-0.05,0.44,0.59
11.611,-0.28,-0.14,0.32,0.45
11.621,-0.27,-0.16,0.33,0.46
11.631,-0.25,-0.08,0.51,0.58
11.641,-0.07,-0.09,0.45,0.47
11.651,0.04,-0.11,0.39,0.40
11.661,0.06,-0.08,0.45,0.47
11.671,0.12,-0.10,0.44,0.47
11.681,0.12,-0.16,0.47,0.51
11.691,0.14,-0.14,0.60,0.63
11.701,0.23,-0.13,0.62,0.67
11.711,0.33,-0.12,0.58,0.68
11.722,0.36,-0.13,0.47,0.61
11.732,0.39,-0.17,0.28,0.51
11.742,0.38,-0.21,0.12,0.45
11.752,0.42,-0.21,0.02,0.47
11.762,0.46,-0.24,-0.05,0.52
11.772,0.42,-0.37,-0.10,0.57
11.782,0.30,-0.53,-0.11,0.62
11.792,0.17,-0.67,-0.11,0.70
11.802,0.09,-0.79,-0.08,0.80
11.812,0.01,-0.90,-0.11,0.90
11.823,-0.03,-0.94,-0.22,0.96
11.832,-0.04,-0.91,-0.42,1.01
11.843,-0.01,-0.87,-0.60,1.06
11.852,0.06,-0.72,-0.82,1.10
11.863,0.14,-0.55,-1.03,1.17
11.873,0.33,-0.40,-1.20,1.31
11.883,0.53,-0.27,-1.33,1.46
11.893,0.74,-0.23,-1.35,1.56
11.903,0.81,-0.25,-1.29,1.54
11.913,0.79,-0.33,-1.24,1.51
11.923,0.69,-0.48,-1.16,1.43
11.933,0.42,-0.68,-1.00,1.28
11.943,0.17,-0.80,-0.81,1.15
11.953,0.11,-0.90,-0.63,1.10
11.963,0.14,-0.87,-0.42,0.98
11.973,0.37,-0.66,-0.22,0.79
11.984,0.65,-0.43,-0.04,0.78
11.994,1.08,-0.27,-0.16,1.12
12.004,1.41,0.04,-0.52,1.50
12.014,1.47,0.38,-0.90,1.76
12.024,1.42,0.70,-1.23,2.00
12.034,1.21,0.99,-1.40,2.10
12.044,1.10,1.32,-1.13,2.06
12.054,1.15,1.56,-0.52,2.00
12.064,1.22,1.73,0.10,2.11
12.074,1.48,1.48,0.66,2.20
12.084,1.89,1.32,1.15,2.58
12.094,2.46,1.31,1.53,3.18
12.105,3.00,1.34,1.56,3.64
12.115,3.30,1.30,1.25,3.76
12.125,3.27,1.33,0.65,3.59
12.135,3.21,1.23,-0.18,3.44
12.145,3.06,1.19,-0.86,3.39
12.155,2.79,1.06,-1.45,3.32
12.165,2.54,0.89,-1.97,3.34
12.175,2.26,0.70,-2.19,3.22
12.185,1.96,0.41,-2.17,2.95
12.195,1.77,0.19,-1.99,2.67
12.205,1.72,-0.00,-1.61,2.35
12.215,1.54,-0.12,-1.08,1.89
12.225,1.38,-0.31,-0.69,1.57
12.235,1.27,-0.46,-0.43,1.41
12.246,1.01,-0.55,-0.30,1.19
12.256,0.78,-0.65,-0.25,1.05
12.266,0.66,-0.87,-0.26,1.12
12.276,0.36,-1.01,-0.31,1.12
12.286,0.13,-1.03,-0.34,1.09
12.296,0.02,-0.99,-0.37,1.06
12.306,0.11,-0.95,-0.54,1.09
12.316,0.31,-0.79,-0.66,1.08
12.326,0.61,-0.67,-0.70,1.15
12.336,0.72,-0.58,-0.69,1.16
12.346,0.60,-0.58,-0.71,1.09
12.356,0.60,-0.59,-0.74,1.12
12.367,0.67,-0.59,-0.77,1.18
12.377,0.78,-0.56,-0.79,1.24
12.387,0.76,-0.43,-0.61,1.07
12.397,0.57,-0.29,-0.22,0.68
12.407,0.56,-0.32,-0.11,0.66
12.417,0.62,-0.40,-0.13,0.75
12.427,0.41,-0.32,-0.19,0.56
12.437,0.18,-0.22,-0.33,0.44
12.447,0.16,-0.21,-0.56,0.62
12.457,0.24,-0.18,-0.64,0.70
12.467,0.34,-0.16,-0.57,0.69
12.478,0.38,-0.12,-0.47,0.62
12.488,0.45,-0.12,-0.40,0.62
12.498,0.39,-0.04,-0.35,0.53
12.508,0.27,0.12,-0.36,0.46
12.518,0.40,0.36,-0.42,0.68
12.528,0.53,0.52,-0.46,0.87
12.538,0.56,0.66,-0.52,1.02
12.548,0.51,0.74,-0.62,1.09
12.558,0.46,0.79,-0.69,1.14
12.568,0.36,0.84,-0.73,1.17
12.578,0.26,0.79,-0.66,1.06
12.588,0.13,0.68,-0.51,0.86
12.598,-0.04,0.56,-0.35,0.66
12.609,-0.10,0.40,-0.19,0.46
12.619,-0.07,0.30,-0.11,0.33
12.629,-0.12,0.15,-0.02,0.20
12.639,-0.25,-0.09,0.01,0.27
12.649,-0.40,-0.38,-0.03,0.56
12.659,-0.64,-0.60,-0.06,0.88
12.669,-0.86,-0.84,-0.05,1.20
12.679,-1.09,-1.08,-0.04,1.54
12.689,-1.36,-1.20,-0.09,1.82
12.699,-1.45,-1.30,-0.10,1.95
12.709,-1.50,-1.32,-0.06,2.00
12.719,-1.48,-1.23,-0.06,1.93
12.729,-1.40,-1.13,0.00,1.79
12.739,-1.25,-0.98,0.05,1.59
12.750,-1.20,-0.86,0.04,1.48
12.760,-1.24,-0.87,0.03,1.52
12.770,-1.30,-0.90,0.05,1.58
12.780,-1.32,-0.81,0.09,1.56
12.790,-1.22,-0.70,0.12,1.41
12.800,-1.08,-0.60,0.19,1.25
12.810,-0.97,-0.52,0.32,1.15
12.820,-0.87,-0.48,0.48,1.10
12.830,-0.84,-0.49,0.64,1.16
12.840,-0.94,-0.56,0.81,1.36
12.850,-1.08,-0.66,0.87,1.54
12.860,-1.32,-0.71,0.77,1.69
12.871,-1.58,-0.62,0.65,1.82
12.880,-1.82,-0.54,0.58,1.98
12.891,-2.02,-0.44,0.51,2.13
12.901,-2.04,-0.18,0.47,2.10
12.911,-2.08,0.14,0.37,2.12
12.921,-2.23,0.43,0.17,2.28
12.931,-2.28,0.86,-0.04,2.44
12.941,-2.16,1.31,-0.03,2.52
12.951,-2.02,1.62,0.32,2.61
12.961,-1.77,1.84,0.88,2.70
12.971,-1.50,1.97,1.32,2.81
12.981,-1.30,2.04,1.51,2.85
12.992,-1.15,2.15,1.44,2.83
13.002,-1.02,2.25,1.30,2.79
13.012,-0.88,2.40,1.22,2.83
13.022,-0.75,2.51,1.15,2.86
13.032,-0.75,2.47,1.21,2.85
13.042,-0.73,2.32,1.44,2.83
13.052,-0.67,2.12,1.73,2.81
13.062,-0.79,1.81,1.84,2.70
13.072,-0.87,1.45,1.83,2.49
13.082,-0.96,1.10,1.83,2.34
13.092,-1.13,0.79,1.67,2.17
13.102,-1.29,0.53,1.36,1.95
13.112,-1.41,0.31,1.04,1.78
13.122,-1.45,0.12,0.71,1.62
13.132,-1.39,0.08,0.35,1.44
13.142,-1.32,0.06,0.08,1.33
13.153,-1.20,0.02,-0.02,1.20
13.163,-1.13,-0.06,-0.08,1.13
13.173,-1.07,-0.16,-0.05,1.09
13.183,-0.99,-0.19,0.08,1.01
13.193,-0.95,-0.22,0.27,1.01
13.203,-0.88,-0.29,0.43,1.02
13.213,-0.88,-0.40,0.62,1.15
13.223,-0.89,-0.52,0.73,1.26
13.233,-0.84,-0.60,0.76,1.28
13.243,-0.78,-0.58,0.78,1.24
13.254,-0.65,-0.50,0.78,1.14
13.263,-0.44,-0.48,0.76,1.00
13.274,-0.35,-0.46,0.73,0.93
13.284,-0.22,-0.39,0.64,0.78
13.294,-0.08,-0.37,0.51,0.64
13.304,-0.06,-0.39,0.43,0.58
13.314,-0.12,-0.43,0.41,0.61
13.324,-0.20,-0.42,0.43,0.63
13.334,-0.24,-0.35,0.42,0.60
13.344,-0.28,-0.29,0.42,0.58
13.354,-0.37,-0.25,0.46,0.64
13.364,-0.46,-0.27,0.48,0.72
13.375,-0.52,-0.34,0.47,0.78
13.384,-0.65,-0.35,0.36,0.82
13.395,-0.80,-0.40,0.21,0.92
13.405,-0.88,-0.35,0.08,0.95
13.415,-0.95,-0.40,-0.02,1.03
13.425,-1.04,-0.40,-0.07,1.12
13.435,-0.97,-0.45,-0.09,1.08
13.445,-0.92,-0.43,-0.02,1.01
13.455,-0.82,-0.36,0.03,0.89
13.465,-0.45,-0.25,0.07,0.52
13.475,-0.03,-0.10,0.23,0.25
13.485,0.31,0.01,0.28,0.42
13.495,0.43,0.06,0.12,0.45
13.505,0.44,0.05,-0.15,0.47
13.516,0.38,0.04,-0.44,0.58
13.526,0.22,0.04,-0.67,0.70
13.536,0.05,0.02,-0.81,0.82
13.546,-0.07,-0.01,-0.81,0.82
13.556,-0.18,-0.10,-0.66,0.69
13.566,-0.13,-0.19,-0.39,0.45
13.576,0.00,-0.22,-0.11,0.25
13.586,0.08,-0.28,0.04,0.30
13.596,0.19,-0.34,0.12,0.41
13.606,0.25,-0.38,0.10,0.46
13.616,0.21,-0.44,-0.08,0.50
13.626,0.22,-0.47,-0.31,0.60
13.637,0.43,-0.43,-0.53,0.81
13.646,0.69,-0.34,-0.67,1.02
13.657,0.81,-0.28,-0.85,1.21
13.667,0.89,-0.29,-0.94,1.33
13.677,0.96,-0.28,-1.00,1.41
13.687,0.99,-0.26,-1.12,1.52
13.697,1.00,-0.30,-1.24,1.62
13.707,0.95,-0.34,-1.34,1.67
13.717,0.83,-0.39,-1.41,1.68
13.727,0.68,-0.46,-1.52,1.72
13.737,0.46,-0.47,-1.56,1.69
13.747,0.32,-0.41,-1.47,1.56
13.758,0.34,-0.32,-1.32,1.40
13.767,0.56,-0.11,-1.13,1.26
13.778,0.94,0.15,-0.88,1.30
13.788,1.32,0.28,-0.57,1.47
13.798,1.65,0.42,-0.17,1.71
13.808,2.07,0.60,0.18,2.17
13.818,2.32,0.71,0.47,2.47
13.828,2.45,0.85,0.66,2.68
13.838,2.49,1.02,0.61,2.76
13.848,2.39,1.17,0.43,2.69
13.858,2.31,1.30,0.15,2.65
13.868,2.25,1.40,-0.08,2.65
13.878,2.21,1.46,-0.18,2.66
13.888,2.24,1.44,-0.13,2.67
13.899,2.36,1.40,-0.05,2.75
13.909,2.41,1.30,0.03,2.74
13.919,2.41,1.15,-0.06,2.67
13.929,2.24,1.02,-0.31,2.48
13.939,2.13,0.81,-0.54,2.34
13.949,1.99,0.68,-0.75,2.23
13.959,1.85,0.60,-0.85,2.12
13.969,1.80,0.53,-0.95,2.11
13.979,1.83,0.55,-1.05,2.18
13.989,1.78,0.45,-1.06,2.12
13.999,1.79,0.31,-1.03,2.09
14.009,1.91,0.21,-0.98,2.16
14.019,1.93,0.12,-0.85,2.11
14.029,1.85,0.08,-0.91,2.06
14.039,1.70,0.07,-1.05,2.00
14.049,1.38,0.02,-1.17,1.80
14.060,1.13,-0.12,-1.12,1.60
14.070,1.09,-0.12,-1.12,1.57
14.080,1.09,-0.12,-0.96,1.45
14.090,1.05,-0.12,-0.70,1.27
14.100,1.18,-0.13,-0.49,1.28
14.110,1.30,-0.18,-0.28,1.34
14.120,1.36,-0.16,-0.04,1.37
14.130,1.35,-0.19,0.08,1.36
14.140,1.29,-0.26,0.07,1.32
14.150,1.14,-0.31,-0.02,1.18
14.161,1.06,-0.33,-0.17,1.13
14.170,0.99,-0.32,-0.35,1.10
14.181,0.78,-0.34,-0.54,1.01
14.191,0.51,-0.47,-0.69,0.98
14.201,0.27,-0.59,-0.76,1.00
14.211,0.25,-0.74,-0.77,1.10
14.221,0.52,-0.79,-0.51,1.08
14.231,0.83,-0.74,-0.14,1.12
14.241,0.95,-0.69,0.06,1.17
14.251,0.95,-0.63,0.11,1.15
14.261,0.74,-0.67,0.02,1.00
14.271,0.50,-0.69,-0.23,0.88
14.282,0.33,-0.71,-0.47,0.91
14.292,0.13,-0.75,-0.70,1.03
14.302,-0.06,-0.69,-0.81,1.07
14.312,-0.12,-0.66,-0.83,1.07
14.322,-0.20,-0.66,-0.79,1.04
14.332,-0.39,-0.65,-0.64,1.00
14.342,-0.48,-0.65,-0.46,0.93
14.352,-0.51,-0.59,-0.30,0.84
14.362,-0.50,-0.47,-0.16,0.71
14.372,-0.55,-0.33,-0.09,0.65
14.382,-0.59,-0.26,-0.17,0.66
14.392,-0.53,-0.16,-0.24,0.61
14.402,-0.45,0.00,-0.22,0.50
14.413,-0.33,0.07,-0.23,0.41
14.423,-0.11,0.10,-0.15,0.21
14.433,0.09,0.15,0.05,0.18
14.443,0.18,0.11,0.16,0.26
14.453,0.27,0.01,0.28,0.39
14.463,0.28,-0.10,0.43,0.52
14.473,0.25,-0.26,0.51,0.62
14.483,0.10,-0.36,0.49,0.62
14.493,-0.16,-0.42,0.44,0.63
14.503,-0.31,-0.50,0.25,0.64
14.513,-0.49,-0.50,0.05,0.70
14.523,-0.59,-0.54,-0.12,0.80
14.534,-0.65,-0.62,-0.26,0.94
14.544,-0.72,-0.64,-0.33,1.02
14.554,-0.78,-0.70,-0.39,1.12
14.564,-0.85,-0.77,-0.42,1.22
14.574,-0.95,-0.81,-0.39,1.31
14.584,-0.97,-0.78,-0.27,1.27
14.594,-0.98,-0.79,-0.09,1.26
14.604,-1.14,-0.72,-0.05,1.35
14.614,-1.28,-0.64,0.02,1.43
14.625,-1.49,-0.68,0.30,1.66
14.634,-1.68,-0.68,0.81,1.98
14.644,-1.78,-0.71,1.22,2.27
14.654,-1.85,-0.69,1.73,2.62
14.665,-1.97,-0.60,2.20,3.01
14.674,-2.08,-0.46,2.58,3.35
14.685,-1.96,-0.32,2.89,3.51
14.695,-1.66,-0.06,3.16,3.57
14.705,-1.37,0.15,3.34,3.61
14.715,-1.22,0.28,3.22,3.45
14.725,-1.24,0.40,2.73,3.02
14.735,-1.37,0.48,2.17,2.61
14.745,-1.58,0.55,1.74,2.41
14.755,-1.70,0.58,1.35,2.24
14.765,-1.74,0.75,0.92,2.11
14.775,-1.81,0.93,0.54,2.11
14.785,-1.87,1.06,0.23,2.16
14.795,-1.85,1.13,0.04,2.17
14.806,-1.74,1.16,-0.07,2.09
14.816,-1.55,1.22,-0.07,1.97
14.826,-1.37,1.30,0.03,1.88
14.836,-1.21,1.26,0.17,1.75
14.846,-1.05,1.15,0.45,1.63
14.856,-0.90,1.10,0.73,1.60
14.866,-0.71,0.96,0.90,1.49
14.876,-0.60,0.85,0.95,1.42
14.886,-0.66,0.75,0.91,1.35
14.896,-0.80,0.55,0.88,1.31
14.907,-0.96,0.32,0.80,1.30
14.916,-1.14,0.11,0.71,1.34
14.927,-1.23,-0.07,0.60,1.37
14.937,-1.32,-0.22,0.54,1.45
14.947,-1.44,-0.37,0.55,1.59
14.957,-1.49,-0.37,0.49,1.61
14.967,-1.35,-0.24,0.25,1.40
14.977,-1.26,0.03,-0.07,1.26
14.987,-1.22,0.15,-0.17,1.24
14.997,-1.01,0.00,-0.05,1.01
15.007,-0.97,-0.14,0.24,1.01
15.017,-0.90,-0.21,0.61,1.11
15.027,-0.72,-0.23,1.01,1.26
15.038,-0.66,-0.38,1.33,1.53
15.048,-0.76,-0.71,1.54,1.86
15.058,-0.87,-0.82,1.61,2.01
15.068,-0.93,-0.81,1.60,2.02
15.078,-0.79,-0.75,1.33,1.72
15.088,-0.62,-0.41,0.96,1.22
15.098,-0.36,-0.29,0.42,0.62
15.108,-0.90,-1.35,0.52,1.71
15.118,-1.30,-1.28,0.56,1.91
15.128,-1.46,-0.64,0.55,1.69
15.138,-0.90,-0.45,0.77,1.26
15.148,-0.68,-0.72,1.07,1.45
15.158,-0.56,-0.92,1.66,1.98
15.169,-0.81,-0.87,1.92,2.26
15.179,-1.38,-0.58,1.73,2.29
15.189,-1.52,-0.39,1.39,2.10
15.199,-1.28,-0.28,0.95,1.62
15.209,-0.85,-0.13,0.57,1.03
15.219,-0.72,0.16,0.28,0.79
15.229,-0.66,0.38,0.08,0.77
15.239,-0.50,0.47,-0.05,0.69
15.249,-0.41,0.50,-0.02,0.65
15.259,-0.24,0.44,-0.00,0.50
15.269,0.14,0.45,0.14,0.49
15.279,0.30,0.42,0.29,0.59
15.290,0.38,0.29,0.32,0.58
15.299,0.42,0.09,0.17,0.46
15.310,0.49,-0.04,-0.09,0.50
15.320,0.44,-0.12,-0.36,0.58
15.330,0.28,-0.15,-0.68,0.75
15.340,0.12,-0.21,-0.90,0.93
15.350,0.09,-0.12,-0.98,0.99
15.360,0.38,0.03,-1.02,1.09
15.370,0.57,-0.03,-0.92,1.08
15.380,0.48,-0.03,-0.56,0.74
15.390,0.56,-0.09,-0.15,0.59
15.400,0.63,-0.22,0.31,0.73
15.410,0.59,-0.40,0.62,0.94
15.420,0.63,-0.59,0.73,1.13
15.431,0.66,-0.78,0.81,1.31
15.441,0.63,-1.02,0.84,1.46
15.451,0.54,-1.21,0.59,1.45
15.461,0.43,-1.31,0.15,1.39
15.471,0.39,-1.27,-0.33,1.37
15.481,0.50,-1.15,-0.76,1.47
15.491,0.68,-1.02,-1.19,1.71
15.501,0.81,-0.77,-1.50,1.88
15.511,1.07,-0.42,-1.52,1.90
15.521,1.64,-0.12,-1.34,2.12
15.531,2.14,0.18,-1.01,2.37
15.541,2.57,0.44,-0.60,2.68
15.552,3.04,0.60,-0.24,3.11
15.562,3.52,0.79,-0.07,3.61
15.572,3.78,0.97,-0.10,3.91
15.582,3.78,1.07,-0.41,3.95
15.592,3.58,1.11,-0.82,3.84
15.602,3.31,1.11,-1.19,3.69
15.612,3.12,0.98,-1.33,3.53
15.622,2.88,0.85,-1.45,3.34
15.632,2.65,0.72,-1.54,3.15
15.642,2.42,0.52,-1.57,2.93
15.652,2.13,0.30,-1.55,2.66
15.662,1.87,0.20,-1.43,2.37
15.672,1.58,0.11,-1.32,2.06
15.682,1.21,0.16,-1.31,1.79
15.693,0.91,0.35,-1.24,1.58
15.703,0.63,0.64,-1.09,1.41
15.713,0.50,0.90,-0.83,1.32
15.723,0.53,1.03,-0.44,1.24
15.733,0.77,1.10,-0.00,1.35
15.743,1.18,1.15,0.34,1.68
15.753,1.67,1.07,0.59,2.07
15.763,2.05,0.93,0.70,2.35
15.773,2.23,0.71,0.73,2.45
15.783,2.36,0.43,0.63,2.48
15.793,2.40,0.18,0.32,2.43
15.803,2.23,-0.08,-0.07,2.23
15.814,1.88,-0.35,-0.50,1.98
15.824,1.44,-0.57,-1.01,1.85
15.834,1.07,-0.74,-1.42,1.92
15.844,0.89,-0.76,-1.66,2.04
15.854,0.81,-0.72,-1.63,1.96
15.864,0.71,-0.71,-1.55,1.85
15.874,0.68,-0.68,-1.50,1.79
15.884,0.64,-0.61,-1.43,1.69
15.894,0.56,-0.55,-1.37,1.58
15.904,0.43,-0.64,-1.26,1.48
15.914,0.14,-0.70,-1.15,1.36
15.924,-0.05,-0.66,-1.04,1.23
15.935,0.00,-0.62,-0.83,1.04
15.944,0.11,-0.56,-0.55,0.79
15.955,0.14,-0.58,-0.26,0.65
15.965,0.15,-0.59,0.04,0.61
15.975,0.19,-0.55,0.26,0.64
15.985,0.32,-0.49,0.53,0.79
15.995,0.46,-0.50,0.80,1.05
16.005,0.55,-0.54,0.90,1.19
16.015,0.62,-0.50,0.84,1.15
16.025,0.62,-0.43,0.53,0.92
16.035,0.49,-0.37,0.12,0.63
16.045,0.28,-0.38,-0.27,0.55
16.056,0.07,-0.39,-0.50,0.64
16.065,-0.03,-0.35,-0.60,0.69
16.076,-0.14,-0.28,-0.62,0.70
16.086,-0.23,-0.29,-0.63,0.73
16.096,-0.34,-0.25,-0.65,0.78
16.106,-0.45,-0.22,-0.63,0.81
16.116,-0.42,-0.17,-0.59,0.74
16.126,-0.27,-0.06,-0.51,0.58
16.136,-0.06,0.05,-0.38,0.39
16.146,0.07,0.20,-0.23,0.32
16.156,0.16,0.30,-0.20,0.39
16.166,0.13,0.42,-0.31,0.53
16.177,-0.01,0.51,-0.43,0.67
16.186,-0.02,0.56,-0.41,0.70
16.197,0.16,0.71,-0.28,0.78
16.207,0.31,0.84,-0.12,0.90
16.217,0.37,0.86,0.03,0.94
16.227,0.47,0.75,0.16,0.90
16.237,0.48,0.57,0.27,0.79
16.247,0.40,0.33,0.25,0.58
16.257,0.16,0.06,0.17,0.24
16.267,-0.10,-0.27,0.15,0.33
16.277,-0.39,-0.67,0.16,0.79
16.287,-0.67,-1.02,0.19,1.24
16.297,-0.92,-1.31,0.22,1.61
16.307,-1.20,-1.54,0.21,1.96
16.318,-1.42,-1.66,0.18,2.19
16.327,-1.53,-1.65,0.11,2.25
16.338,-1.59,-1.56,-0.00,2.23
16.348,-1.61,-1.45,-0.13,2.17
16.358,-1.68,-1.35,-0.27,2.17
16.368,-1.75,-1.28,-0.36,2.20
16.378,-1.80,-1.22,-0.44,2.22
16.388,-1.86,-1.20,-0.43,2.25
16.398,-1.83,-1.16,-0.37,2.20
16.408,-1.80,-1.03,-0.24,2.09
16.418,-1.80,-0.92,-0.06,2.02
16.428,-1.73,-0.82,0.08,1.92
16.438,-1.72,-0.70,0.23,1.88
16.448,-1.71,-0.53,0.47,1.86
16.459,-1.71,-0.24,0.69,1.86
16.468,-1.71,0.17,0.87,1.93
16.479,-1.67,0.65,1.13,2.12
16.489,-1.74,1.11,1.41,2.50
16.499,-1.84,1.45,1.67,2.88
16.509,-1.80,1.69,1.88,3.11
16.519,-1.73,1.94,2.01,3.29
16.529,-1.47,2.18,2.04,3.33
16.539,-1.07,2.39,1.86,3.21
16.549,-0.83,2.55,1.61,3.13
16.559,-0.86,2.59,1.27,3.01
16.569,-0.90,2.51,1.00,2.85
16.580,-0.91,2.36,0.72,2.63
16.589,-0.98,2.19,0.50,2.45
16.600,-1.02,1.97,0.36,2.25
16.610,-1.05,1.69,0.29,2.01
16.620,-1.07,1.38,0.30,1.77
16.630,-1.09,1.09,0.40,1.59
16.640,-1.01,0.85,0.56,1.43
16.650,-0.96,0.58,0.68,1.31
16.660,-0.99,0.30,0.72,1.26
16.670,-1.07,0.10,0.73,1.30
16.680,-1.17,-0.02,0.68,1.35
16.690,-1.15,-0.20,0.65,1.34
16.701,-1.13,-0.32,0.61,1.33
16.710,-1.11,-0.40,0.55,1.30
16.721,-1.11,-0.52,0.52,1.33
16.731,-1.22,-0.65,0.46,1.45
16.741,-1.32,-0.74,0.40,1.57
16.751,-1.32,-0.69,0.40,1.54
16.761,-1.44,-0.59,0.41,1.61
16.771,-1.45,-0.50,0.47,1.60
16.781,-1.37,-0.43,0.48,1.51
16.791,-1.31,-0.34,0.55,1.46
16.801,-1.22,-0.21,0.64,1.40
16.811,-1.09,-0.08,0.76,1.33
16.822,-0.86,0.04,0.89,1.24
16.831,-0.58,0.13,1.00,1.16
16.841,-0.29,0.13,1.01,1.06
16.852,-0.09,0.09,0.91,0.92
16.862,0.03,-0.02,0.80,0.80
16.872,0.03,-0.11,0.62,0.63
16.882,-0.09,-0.17,0.38,0.42
16.892,-0.20,-0.17,0.14,0.30
16.902,-0.32,-0.11,0.07,0.35
16.912,-0.30,-0.14,0.12,0.35
16.922,-0.32,-0.17,0.18,0.40
16.932,-0.37,-0.20,0.17,0.46
16.942,-0.44,-0.23,0.14,0.52
16.952,-0.54,-0.27,0.04,0.61
16.963,-0.56,-0.30,-0.04,0.63
16.972,-0.48,-0.22,-0.08,0.54
16.983,-0.49,-0.11,-0.08,0.51
16.993,-0.48,-0.09,-0.07,0.49
17.003,-0.37,-0.07,-0.01,0.38
17.013,-0.28,0.00,0.07,0.28
17.023,-0.19,-0.01,0.11,0.22
17.033,-0.12,-0.12,0.12,0.21
17.043,-0.06,-0.18,0.14,0.24
17.053,-0.02,-0.19,0.12,0.23
17.063,0.02,-0.14,0.03,0.15
17.073,0.09,-0.11,0.02,0.15
17.083,0.19,-0.04,0.14,0.23
17.093,0.27,-0.04,0.31,0.41
17.104,0.31,-0.11,0.48,0.58
17.114,0.39,-0.24,0.59,0.75
17.124,0.48,-0.31,0.64,0.86
17.134,0.52,-0.32,0.65,0.89
17.144,0.56,-0.31,0.61,0.88
17.154,0.67,-0.32,0.49,0.89
17.164,0.79,-0.33,0.34,0.92
17.174,0.88,-0.33,0.16,0.95
17.184,0.89,-0.35,-0.05,0.95
17.194,0.88,-0.33,-0.25,0.97
17.204,0.98,-0.25,-0.35,1.07
17.214,1.05,-0.10,-0.37,1.12
17.225,1.07,-0.04,-0.25,1.10
17.235,1.13,-0.09,-0.06,1.13
17.245,1.18,-0.25,0.15,1.21
17.255,1.19,-0.38,0.33,1.29
17.265,1.23,-0.46,0.43,1.38
17.275,1.16,-0.57,0.42,1.36
17.285,1.09,-0.75,0.27,1.35
17.295,1.01,-0.85,-0.04,1.32
17.305,0.95,-0.85,-0.37,1.33
17.316,0.92,-0.86,-0.67,1.42
17.325,0.90,-0.85,-0.88,1.51
17.335,0.84,-0.76,-1.12,1.59
17.346,0.75,-0.66,-1.29,1.63
17.356,0.82,-0.59,-1.26,1.62
17.366,1.06,-0.46,-1.01,1.54
17.376,1.33,-0.24,-0.76,1.55
17.386,1.57,-0.04,-0.65,1.70
17.396,1.81,0.23,-0.64,1.94
17.406,2.05,0.55,-0.71,2.24
17.416,2.29,0.80,-0.71,2.53
17.426,2.42,1.00,-0.63,2.69
17.436,2.39,1.09,-0.50,2.68
17.446,2.42,1.16,-0.32,2.70
17.456,2.50,1.32,-0.18,2.83
17.467,2.57,1.50,0.00,2.97
17.476,2.59,1.52,0.20,3.01
17.487,2.67,1.43,0.32,3.04
17.497,2.67,1.30,0.38,3.00
17.507,2.66,1.28,0.32,2.97
17.517,2.71,1.34,0.11,3.02
17.527,2.73,1.33,-0.14,3.04
17.537,2.72,1.25,-0.31,3.01
17.547,2.78,1.08,-0.44,3.02
17.557,2.70,0.83,-0.59,2.89
17.567,2.52,0.58,-0.75,2.69
17.577,2.27,0.36,-0.93,2.48
17.587,1.89,0.09,-1.08,2.18
17.597,1.50,-0.14,-1.18,1.91
17.608,1.14,-0.35,-1.23,1.72
17.618,0.88,-0.50,-1.17,1.55
17.628,0.68,-0.63,-1.04,1.40
17.638,0.67,-0.75,-0.92,1.36
17.648,0.64,-0.83,-0.79,1.31
17.658,0.59,-0.80,-0.69,1.21
17.668,0.59,-0.81,-0.61,1.17
17.678,0.63,-0.83,-0.50,1.15
17.688,0.66,-0.81,-0.38,1.11
17.698,0.57,-0.85,-0.28,1.06
17.708,0.53,-0.86,-0.19,1.02
17.718,0.54,-0.82,-0.07,0.99
17.729,0.57,-0.78,0.04,0.96
17.738,0.60,-0.80,0.08,1.00
17.749,0.61,-0.79,0.01,0.99
17.759,0.63,-0.71,-0.17,0.96
17.769,0.65,-0.63,-0.43,1.00
17.779,0.54,-0.58,-0.69,1.05
17.789,0.44,-0.51,-0.85,1.08
17.799,0.41,-0.43,-0.79,0.99
17.809,0.53,-0.32,-0.49,0.79
17.819,0.58,-0.26,-0.09,0.64
17.829,0.69,-0.17,0.29,0.77
17.839,0.79,-0.08,0.56,0.97
17.849,0.78,-0.02,0.68,1.03
17.859,0.71,0.05,0.73,1.02
17.870,0.72,0.06,0.74,1.03
17.880,0.69,0.04,0.81,1.06
17.890,0.64,-0.04,0.88,1.08
17.900,0.44,-0.20,0.81,0.95
17.910,0.11,-0.42,0.59,0.73
17.920,-0.23,-0.61,0.26,0.71
17.930,-0.59,-0.77,-0.07,0.98
17.940,-0.86,-0.83,-0.38,1.25
17.950,-1.05,-0.89,-0.48,1.46
17.960,-1.08,-0.88,-0.45,1.46
17.970,-1.06,-0.79,-0.44,1.39
17.980,-1.01,-0.63,-0.60,1.33
17.991,-1.00,-0.46,-0.84,1.39
18.000,-1.10,-0.27,-1.06,1.55
18.011,-1.11,-0.10,-1.09,1.56
18.021,-1.05,-0.01,-0.91,1.39
18.031,-0.96,0.07,-0.55,1.11
18.041,-0.90,0.04,-0.12,0.91
18.051,-0.84,0.00,0.17,0.86
18.061,-0.94,-0.06,0.32,0.99
18.071,-0.93,-0.13,0.36,1.00
18.081,-0.93,-0.15,0.39,1.02
18.091,-0.98,-0.18,0.29,1.04
18.101,-0.98,-0.13,0.22,1.02
18.112,-0.90,-0.11,0.27,0.95
18.121,-0.75,-0.17,0.55,0.94
18.132,-0.62,-0.21,0.81,1.04
18.142,-0.60,-0.29,0.95,1.16
18.152,-0.55,-0.41,1.03,1.24
18.162,-0.57,-0.52,0.93,1.21
18.172,-0.69,-0.56,0.76,1.17
18.182,-0.88,-0.60,0.60,1.22
18.192,-1.03,-0.57,0.42,1.25
18.202,-1.29,-0.47,0.18,1.39
18.212,-1.42,-0.33,0.01,1.46
18.222,-1.28,-0.15,0.20,1.30
18.233,-1.08,-0.04,0.70,1.29
18.242,-0.86,0.03,1.14,1.43
18.253,-0.71,0.04,1.54,1.69
18.263,-0.58,-0.04,1.91,2.00
18.273,-0.51,-0.05,2.20,2.26
18.283,-0.41,0.10,2.37,2.41
18.293,-0.38,0.24,2.45,2.49
18.303,-0.50,0.38,2.44,2.52
18.313,-0.61,0.55,2.35,2.49
18.323,-0.59,0.62,2.23,2.39
18.333,-0.60,0.59,2.04,2.21
18.343,-0.65,0.48,1.68,1.87
18.353,-0.84,0.42,1.25,1.56
18.363,-1.09,0.37,0.85,1.43
18.374,-1.34,0.27,0.49,1.46
18.383,-1.60,0.24,0.25,1.64
18.394,-1.84,0.33,0.09,1.87
18.404,-2.08,0.45,0.04,2.13
18.414,-2.23,0.61,0.19,2.32
18.424,-2.14,0.76,0.53,2.33
18.434,-1.90,0.87,0.95,2.30
18.444,-1.63,0.91,1.31,2.28
18.454,-1.37,0.93,1.63,2.32
18.464,-1.16,0.86,1.90,2.39
18.474,-1.11,0.68,2.11,2.48
18.484,-1.17,0.50,2.13,2.48
18.494,-1.27,0.36,1.88,2.30
18.504,-1.35,0.40,1.46,2.03
18.515,-1.42,0.34,1.01,1.78
18.525,-1.42,0.28,0.65,1.58
18.535,-1.32,0.22,0.41,1.40
18.545,-1.22,0.12,0.36,1.28
18.555,-1.13,-0.01,0.37,1.18
18.565,-0.99,-0.14,0.41,1.08
18.575,-0.89,-0.26,0.40,1.01
18.585,-0.87,-0.34,0.25,0.97
18.595,-0.91,-0.35,-0.01,0.97
18.605,-1.09,-0.37,-0.20,1.17
18.615,-1.21,-0.44,-0.25,1.32
18.625,-1.17,-0.42,-0.14,1.25
18.636,-1.09,-0.41,-0.00,1.16
18.646,-0.96,-0.42,0.15,1.06
18.656,-0.81,-0.36,0.26,0.93
18.666,-0.77,-0.29,0.24,0.86
18.676,-0.77,-0.26,0.28,0.86
18.686,-0.84,-0.27,0.37,0.95
18.696,-0.90,-0.30,0.44,1.05
18.706,-0.86,-0.31,0.51,1.05
18.716,-0.92,-0.33,0.62,1.16
18.726,-0.91,-0.32,0.68,1.18
18.736,-0.89,-0.32,0.66,1.16
18.746,-0.91,-0.39,0.59,1.15
18.757,-0.85,-0.38,0.51,1.06
18.766,-0.70,-0.33,0.48,0.90
18.777,-0.65,-0.33,0.52,0.89
18.787,-0.53,-0.36,0.58,0.87
18.797,-0.46,-0.32,0.69,0.89
18.807,-0.40,-0.32,0.81,0.96
18.817,-0.41,-0.33,0.87,1.01
18.827,-0.48,-0.29,0.89,1.05
18.837,-0.45,-0.23,0.84,0.98
18.847,-0.43,-0.23,0.76,0.91
18.857,-0.35,-0.19,0.70,0.80
18.867,-0.20,-0.16,0.62,0.67
18.879,-0.19,-0.21,0.54,0.61
18.887,-0.09,-0.20,0.54,0.58
18.898,0.03,-0.24,0.53,0.58
18.908,0.05,-0.30,0.47,0.56
18.918,0.12,-0.27,0.44,0.53
18.928,0.17,-0.18,0.40,0.47
18.938,0.39,-0.11,0.27,0.49
18.948,0.55,-0.06,0.18,0.58
18.958,0.76,0.04,0.11,0.77
18.968,1.05,0.16,0.07,1.07
18.978,1.25,0.33,0.01,1.30
18.988,1.26,0.48,-0.15,1.36
18.998,1.17,0.50,-0.38,1.33
19.008,1.12,0.45,-0.54,1.32
19.018,1.05,0.37,-0.55,1.24
19.029,0.93,0.28,-0.45,1.07
19.039,0.83,0.18,-0.24,0.89
19.049,0.73,0.07,-0.05,0.73
19.059,0.64,-0.00,-0.07,0.65
19.069,0.50,-0.08,-0.19,0.54
19.079,0.42,-0.03,-0.37,0.56
19.089,0.45,0.11,-0.62,0.77
19.099,0.67,0.26,-0.94,1.18
19.109,0.84,0.25,-1.32,1.59
19.119,0.88,0.21,-1.68,1.91
19.129,0.96,0.18,-1.84,2.08
19.140,0.99,0.17,-1.76,2.03
19.149,1.11,0.17,-1.60,1.96
19.160,1.14,0.12,-1.45,1.85
19.170,1.13,0.05,-1.44,1.83
19.180,1.13,0.12,-1.52,1.90
19.190,1.06,0.22,-1.67,1.99
19.200,0.96,0.25,-1.86,2.11
19.210,0.83,0.25,-2.01,2.19
19.220,0.80,0.34,-2.00,2.18
19.230,0.90,0.47,-1.87,2.13
19.240,0.99,0.60,-1.68,2.04
19.250,1.17,0.77,-1.45,2.01
19.260,0.98,0.24,-1.26,1.62
19.270,1.13,1.05,-0.95,1.81
19.281,1.57,1.62,-0.90,2.43
19.291,1.69,0.93,-0.92,2.13
19.301,1.55,0.53,-0.80,1.82
19.311,1.43,0.77,-0.62,1.74
19.321,1.62,0.93,-0.45,1.92
19.331,1.84,0.83,-0.27,2.03
19.341,1.88,0.64,-0.05,1.99
19.351,1.92,0.50,0.15,1.99
19.361,2.00,0.33,0.21,2.04
19.371,1.96,0.12,0.14,1.97
19.381,1.72,-0.16,0.05,1.73
19.391,1.73,-0.39,-0.03,1.77
19.402,1.65,-0.52,0.13,1.74
19.412,1.39,-0.77,0.14,1.60
19.422,1.47,-0.95,0.06,1.75
19.432,1.60,-0.98,0.02,1.88
19.442,1.76,-1.06,-0.17,2.06
19.452,1.86,-0.92,-0.36,2.11
19.462,1.84,-0.62,-0.62,2.04
19.472,1.88,-0.37,-0.74,2.06
19.482,1.72,-0.17,-0.74,1.88
19.492,1.60,0.04,-0.93,1.85
19.502,1.57,0.23,-1.07,1.91
19.512,1.75,0.43,-0.82,1.98
19.523,2.11,0.63,-0.32,2.22
19.532,2.45,0.76,0.30,2.58
19.543,2.56,0.81,0.80,2.80
19.553,2.41,0.80,1.00,2.73
19.563,2.09,0.66,0.88,2.37
19.573,1.76,0.53,0.58,1.93
19.583,1.44,0.44,0.26,1.53
19.593,1.07,0.29,-0.08,1.11
19.603,0.85,0.12,-0.29,0.91
19.613,0.71,-0.00,-0.31,0.77
19.623,0.73,-0.19,-0.15,0.77
19.633,0.85,-0.30,0.13,0.91
19.644,0.95,-0.39,0.45,1.13
19.653,0.96,-0.59,0.73,1.35
19.664,0.96,-0.71,0.85,1.46
19.674,0.85,-0.78,0.87,1.44
19.684,0.72,-0.91,0.86,1.45
19.694,0.57,-1.04,0.77,1.42
19.704,0.27,-1.13,0.64,1.33
19.714,0.05,-1.13,0.49,1.24
19.724,0.01,-1.01,0.39,1.08
19.734,0.16,-0.85,0.33,0.92
19.744,0.31,-0.70,0.32,0.83
19.754,0.37,-0.56,0.29,0.73
19.764,0.43,-0.46,0.28,0.69
19.774,0.70,-0.37,0.31,0.85
19.785,0.95,-0.29,0.26,1.03
19.795,0.97,-0.20,-0.00,0.99
19.805,0.88,-0.21,-0.34,0.96
19.815,0.69,-0.12,-0.64,0.95
19.825,0.57,0.04,-0.79,0.98
19.835,0.44,0.09,-0.92,1.02
19.845,0.11,0.02,-1.06,1.06
19.855,-0.38,-0.11,-1.18,1.24
19.865,-0.71,-0.32,-1.02,1.29
19.875,-1.04,-0.46,-0.60,1.29
19.885,-1.34,-0.64,-0.07,1.49
19.895,-1.48,-0.78,0.46,1.74
19.906,-1.43,-0.89,0.94,1.93
19.915,-1.17,-0.98,1.26,1.98
19.926,-0.99,-0.97,1.41,1.98
19.936,-1.13,-1.00,1.22,1.94
19.946,-1.42,-1.09,0.85,1.98
19.956,-1.50,-1.20,0.58,2.01
19.966,-1.43,-1.26,0.45,1.96
19.976,-1.46,-1.19,0.39,1.92
19.986,-1.45,-1.16,0.28,1.88
19.996,-1.41,-1.06,0.17,1.77
20.006,-1.39,-0.97,0.07,1.70
20.016,-1.51,-0.85,-0.08,1.74
20.026,-1.74,-0.72,-0.27,1.90
20.036,-1.97,-0.51,-0.34,2.06
20.047,-2.04,-0.22,-0.23,2.06
20.057,-2.06,-0.01,0.05,2.06
20.067,-1.98,0.17,0.28,2.01
20.077,-1.89,0.46,0.38,1.99
20.087,-1.82,0.65,0.41,1.97
20.097,-1.85,0.80,0.42,2.06
20.107,-1.81,0.98,0.46,2.11
20.119,-1.79,1.20,0.49,2.21
20.127,-1.81,1.43,0.55,2.37
20.137,-1.82,1.70,0.59,2.56
20.147,-1.75,1.95,0.62,2.70
20.158,-1.73,2.15,0.57,2.82
20.168,-1.79,2.27,0.42,2.93
20.177,-1.89,2.42,0.49,3.11
20.188,-1.92,2.58,0.66,3.29
20.198,-1.80,2.85,0.90,3.49
20.208,-1.55,3.05,1.13,3.60
20.218,-1.26,2.92,1.23,3.42
20.228,-1.02,2.81,1.17,3.21
20.238,-0.92,3.05,0.97,3.33
20.248,-0.85,3.25,0.95,3.49
20.258,-0.88,3.07,1.08,3.38
20.268,-0.84,2.68,1.16,3.03
20.278,-0.88,2.19,1.18,2.63
20.288,-1.12,1.65,1.15,2.30
20.298,-1.60,1.06,0.96,2.15
20.309,-2.35,0.42,0.74,2.50
20.319,-2.94,0.02,0.74,3.03
20.329,-3.36,-0.21,0.64,3.43
20.339,-3.51,-0.40,0.52,3.57
20.349,-3.52,-0.40,0.46,3.57
20.359,-3.50,-0.24,0.42,3.54
20.369,-3.31,-0.30,0.33,3.34
20.379,-2.73,-0.56,0.25,2.80
20.389,-2.30,-0.68,0.42,2.44
20.399,-1.82,-0.69,0.49,2.01
20.409,-1.39,-0.63,0.36,1.57
20.419,-1.20,-0.66,0.06,1.37
20.430,-1.00,-0.73,-0.37,1.29
20.440,-0.92,-0.74,-0.86,1.46
20.450,-1.03,-0.69,-1.34,1.82
20.460,-1.16,-0.65,-1.58,2.07
20.470,-1.06,-0.64,-1.52,1.96
20.480,-0.82,-0.57,-1.29,1.63
20.490,-0.57,-0.63,-0.99,1.30
20.500,-0.47,-0.82,-0.71,1.18
20.510,-0.37,-0.95,-0.45,1.11
20.520,-0.37,-0.94,-0.27,1.05
20.530,-0.40,-0.96,-0.21,1.06
20.540,-0.58,-0.92,-0.07,1.09
20.551,-0.90,-0.75,0.12,1.17
20.561,-1.16,-0.65,0.31,1.36
20.571,-1.35,-0.58,0.48,1.55
20.581,-1.38,-0.56,0.74,1.66
20.591,-1.33,-0.61,0.96,1.75
20.601,-1.29,-0.70,1.07,1.82
20.611,-1.31,-0.75,1.12,1.88
20.621,-1.36,-0.75,1.09,1.89
20.631,-1.36,-0.76,0.87,1.78
20.641,-1.18,-0.65,0.47,1.43
20.651,-1.45,0.08,0.91,1.71
20.661,-1.33,0.27,0.73,1.54
20.672,-1.02,0.28,0.16,1.07
20.681,-1.13,0.62,0.06,1.30
20.692,-1.30,0.81,-0.03,1.53
20.702,-1.31,0.72,-0.18,1.51
20.712,-1.26,0.57,-0.09,1.39
20.722,-1.08,0.50,0.22,1.21
20.732,-0.73,0.36,0.89,1.20
20.742,-0.20,0.45,0.96,1.08
20.752,0.27,0.42,0.66,0.83
20.762,0.69,0.47,0.51,0.98
20.772,0.67,0.57,0.08,0.88
20.782,0.68,0.41,-0.31,0.86
20.792,0.87,0.21,-0.57,1.06
20.802,1.08,0.10,-0.57,1.22
20.813,1.38,-0.04,-0.49,1.46
20.823,1.77,-0.25,-0.33,1.82
20.833,2.05,-0.48,-0.09,2.11
20.843,2.15,-0.61,0.14,2.24
20.853,2.21,-0.75,0.20,2.34
20.863,2.15,-0.88,0.22,2.33
20.873,1.88,-1.02,0.18,2.15
20.883,1.62,-1.19,0.10,2.01
20.893,1.47,-1.27,-0.06,1.95
20.903,1.19,-1.19,-0.18,1.69
20.913,0.94,-1.08,-0.37,1.48
20.923,0.92,-0.99,-0.67,1.51
20.934,1.02,-0.91,-0.88,1.63
20.943,1.27,-0.84,-1.06,1.86
20.954,1.49,-0.84,-1.27,2.13
20.964,1.69,-0.89,-1.51,2.44
20.974,2.03,-0.95,-1.64,2.78
20.984,2.27,-1.00,-1.52,2.91
20.994,2.42,-0.81,-1.24,2.84
21.004,2.60,-0.49,-0.70,2.74
21.014,2.95,-0.10,-0.02,2.95
21.024,3.32,0.39,0.57,3.39
21.034,3.51,0.78,0.83,3.69
21.044,3.48,1.22,0.52,3.73
21.055,2.97,1.90,-0.34,3.54
21.064,2.45,2.59,-1.39,3.83
21.075,2.07,3.08,-2.06,4.25
21.085,1.56,3.37,-2.19,4.31
21.095,1.33,3.33,-1.82,4.02
21.105,1.44,3.02,-1.07,3.51
21.115,1.77,2.83,-0.37,3.36
21.125,2.17,2.63,0.16,3.42
21.135,2.72,2.51,0.40,3.73
21.145,3.31,2.35,0.42,4.08
21.155,3.72,2.12,0.20,4.29
21.165,3.84,1.74,-0.46,4.24
21.175,3.55,0.94,-1.33,3.91
21.185,3.05,0.52,-1.63,3.50
21.196,2.85,0.61,-1.14,3.13
21.206,2.13,-0.41,-0.72,2.28
21.216,1.61,-1.18,-0.48,2.05
21.226,1.22,-1.27,-0.26,1.78
21.236,0.81,-1.33,-0.16,1.56
21.246,0.67,-1.40,-0.27,1.57
21.256,0.74,-1.37,-0.57,1.66
21.266,0.77,-1.15,-0.95,1.68
21.276,0.91,-0.83,-1.25,1.75
21.286,1.12,-0.53,-1.36,1.84
21.296,1.30,-0.24,-1.27,1.83
21.306,1.45,-0.18,-0.92,1.73
21.317,1.57,-0.34,-0.33,1.64
21.326,1.61,-0.48,0.40,1.73
21.337,1.55,-0.58,1.03,1.95
21.347,1.50,-0.67,1.51,2.23
21.357,1.60,-0.69,1.65,2.40
21.367,1.90,-0.56,1.57,2.53
21.377,1.93,-0.30,1.48,2.45
21.387,1.73,-0.07,1.15,2.08
21.397,1.64,-0.03,0.69,1.78
21.407,1.66,-0.10,0.52,1.74
21.417,1.67,-0.27,0.48,1.76
21.427,1.67,-0.52,0.57,1.84
21.438,1.51,-0.75,0.79,1.86
21.448,1.39,-0.98,0.98,1.97
21.458,1.27,-1.16,1.03,2.00
21.468,1.18,-1.24,0.88,1.92
21.478,1.05,-1.17,0.62,1.69
21.488,0.92,-1.09,0.27,1.45
21.498,0.84,-1.02,-0.11,1.33
21.508,0.66,-0.86,-0.37,1.14
21.518,0.52,-0.67,-0.45,0.96
21.528,0.55,-0.51,-0.42,0.86
21.538,0.78,-0.33,-0.49,0.98
21.548,0.86,-0.15,-0.56,1.04
21.558,0.79,-0.06,-0.57,0.97
21.568,0.83,0.06,-0.43,0.93
21.579,0.98,0.27,-0.41,1.10
21.588,0.92,0.39,-0.44,1.09
21.599,0.59,0.40,-0.53,0.89
21.609,0.18,0.29,-0.69,0.77
21.619,-0.35,0.22,-0.80,0.90
21.629,-0.90,0.21,-0.68,1.15
21.639,-1.26,0.11,-0.40,1.33
21.649,-1.28,-0.02,0.06,1.28
21.659,-1.22,-0.15,0.63,1.38
21.669,-1.23,-0.22,1.03,1.62
21.679,-1.35,-0.26,1.18,1.81
21.689,-1.43,-0.31,1.13,1.85
21.699,-1.55,-0.31,0.95,1.85
21.709,-1.80,-0.29,0.68,1.94
21.720,-2.01,-0.32,0.36,2.07
21.730,-2.13,-0.32,0.11,2.16
21.740,-2.08,-0.31,0.14,2.11
21.750,-1.95,-0.26,0.34,2.00
21.760,-1.69,-0.23,0.53,1.79
21.770,-1.40,-0.15,0.69,1.57
21.780,-1.26,-0.01,0.79,1.49
21.790,-1.30,0.00,0.80,1.53
21.800,-1.30,0.01,0.69,1.47
21.810,-1.35,0.09,0.54,1.46
21.821,-1.58,0.22,0.37,1.64
21.830,-1.90,0.34,0.09,1.93
21.841,-2.13,0.60,-0.16,2.22
21.851,-2.26,0.80,-0.28,2.41
21.861,-2.22,0.97,-0.13,2.42
21.871,-1.89,1.26,0.36,2.30
21.881,-1.47,1.71,1.10,2.51
21.891,-1.37,2.03,1.85,3.07
21.901,-1.48,2.12,2.42,3.54
21.911,-1.47,2.13,2.72,3.76
21.921,-1.74,2.03,2.53,3.68
21.931,-2.23,1.90,2.03,3.56
21.941,-2.58,1.80,1.41,3.44
21.951,-2.86,1.93,0.63,3.51
21.962,-3.38,2.16,-0.11,4.01
21.972,-3.74,2.19,-0.63,4.38
21.982,-3.80,2.26,-0.88,4.51
21.992,-3.73,2.19,-0.91,4.42
22.002,-3.33,2.06,-0.78,3.99
22.012,-2.82,1.79,-0.40,3.36
22.022,-2.30,1.40,0.17,2.70
22.032,-1.77,0.99,0.72,2.15
22.042,-1.48,0.59,0.97,1.86
22.052,-1.57,0.21,0.93,1.84
22.063,-1.87,-0.01,0.64,1.97
22.072,-2.08,0.05,0.16,2.09
22.083,-2.43,0.06,-0.19,2.43
22.092,-2.58,0.03,-0.32,2.60
22.103,-2.51,0.10,-0.22,2.52
22.113,-2.28,-0.02,0.16,2.28
22.123,-1.89,-0.25,0.51,1.97
22.133,-1.49,-0.39,0.77,1.72
22.143,-1.12,-0.45,0.99,1.56
22.153,-0.83,-0.35,0.98,1.33
22.163,-0.59,-0.30,0.71,0.97
22.173,-0.43,-0.28,0.23,0.56
22.183,-0.58,-0.33,-0.23,0.71
22.193,-0.94,-0.51,-0.56,1.21
22.203,-1.34,-0.82,-0.68,1.71
22.213,-1.54,-1.23,-0.62,2.07
22.224,-1.63,-1.52,-0.43,2.27
22.234,-1.43,-1.71,-0.23,2.24
22.244,-1.27,-1.83,0.01,2.23
22.254,-1.03,-1.88,0.16,2.15
22.264,-0.61,-1.76,0.17,1.87
22.274,-0.58,-1.66,0.25,1.77
22.284,-0.80,-1.62,0.32,1.83
22.294,-0.92,-1.44,0.29,1.73
22.304,-0.99,-1.20,0.30,1.58
22.314,-1.01,-0.96,0.32,1.43
22.324,-0.93,-0.70,0.20,1.18
22.334,-0.83,-0.40,0.11,0.93
22.345,-0.63,-0.05,0.08,0.64
22.355,-0.49,0.26,0.06,0.55
22.365,-0.43,0.47,0.02,0.64
22.375,-0.48,0.69,0.01,0.84
22.385,-0.58,0.82,-0.11,1.01
22.395,-0.70,0.87,-0.18,1.13
22.405,-0.81,0.93,-0.14,1.24
22.415,-0.80,0.94,-0.16,1.25
22.425,-0.66,0.94,-0.15,1.16
22.435,-0.35,0.88,-0.15,0.96
22.445,0.10,0.90,-0.14,0.92
22.455,0.43,0.92,-0.12,1.02
22.466,0.73,0.75,-0.28,1.08
22.475,0.98,0.48,-0.34,1.15
22.486,1.06,0.22,-0.18,1.09
22.496,1.03,-0.06,0.14,1.04
22.506,1.09,-0.24,0.49,1.22
22.516,1.11,-0.24,0.76,1.37
22.526,1.16,-0.19,0.99,1.53
22.536,1.44,-0.09,1.09,1.81
22.546,1.72,-0.03,1.11,2.04
22.556,1.83,-0.01,1.08,2.13
22.566,1.89,-0.08,0.88,2.08
22.576,2.04,-0.14,0.62,2.13
22.587,2.13,-0.23,0.43,2.18
22.597,2.19,-0.38,0.16,2.23
22.607,2.08,-0.49,-0.23,2.15
22.617,1.77,-0.59,-0.52,1.94
22.627,1.62,-0.67,-0.67,1.88
22.637,1.73,-0.66,-0.63,1.95
22.647,1.94,-0.55,-0.47,2.07
22.657,2.02,-0.43,-0.42,2.11
22.667,2.05,-0.42,-0.58,2.17
22.677,2.04,-0.39,-0.86,2.25
22.687,2.14,-0.24,-1.12,2.42
22.697,2.28,-0.08,-1.26,2.61
22.707,2.41,0.09,-1.36,2.77
22.718,2.60,0.35,-1.51,3.02
22.727,2.70,0.68,-1.66,3.24
22.737,2.30,1.20,-1.95,3.24
22.748,1.72,1.74,-2.46,3.47
22.758,1.00,2.25,-2.62,3.59
22.768,0.81,2.67,-2.12,3.51
22.778,1.15,2.98,-1.14,3.39
22.788,1.52,2.86,0.06,3.24
22.798,2.05,2.42,1.08,3.35
22.808,2.42,1.95,1.67,3.53
22.818,2.66,1.62,1.88,3.64
22.828,2.98,1.44,1.74,3.74
22.838,3.12,1.44,1.23,3.65
22.849,3.04,1.39,0.73,3.42
22.858,3.09,1.01,0.48,3.29
22.869,3.21,0.66,0.32,3.29
22.879,3.04,0.39,0.18,3.07
22.889,2.77,0.04,0.09,2.77
22.899,2.58,-0.29,-0.04,2.59
22.909,2.29,-0.48,-0.26,2.36
22.919,1.82,-0.64,-0.38,1.97
22.929,1.54,-0.61,-0.46,1.72
22.939,1.44,-0.44,-0.50,1.58
22.949,1.46,-0.42,-0.57,1.62
22.959,1.58,-0.34,-0.57,1.71
22.969,1.55,-0.24,-0.54,1.66
22.979,1.54,-0.18,-0.56,1.65
22.990,1.52,-0.08,-0.47,1.59
23.000,1.43,-0.13,-0.44,1.50
23.010,1.22,-0.29,-0.37,1.31
23.020,1.12,-0.36,-0.21,1.19
23.030,1.18,-0.45,0.16,1.27
23.040,1.19,-0.53,0.56,1.42
23.050,1.26,-0.59,0.81,1.61
23.060,1.42,-0.47,0.88,1.73
23.070,1.42,-0.25,0.76,1.63
23.080,1.20,-0.16,0.55,1.33
23.090,0.89,-0.29,0.21,0.96
23.100,0.61,-0.44,-0.18,0.77
23.111,0.43,-0.52,-0.42,0.80
23.121,0.48,-0.59,-0.46,0.89
23.131,0.55,-0.77,-0.29,0.99
23.141,0.40,-0.97,-0.03,1.05
23.151,0.17,-1.17,0.09,1.19
23.161,-0.05,-1.36,0.23,1.38
23.171,-0.04,-1.51,0.53,1.60
23.181,0.07,-1.44,0.88,1.69
23.191,0.29,-1.23,1.14,1.70
23.201,0.58,-1.08,1.36,1.84
23.211,0.80,-0.86,1.50,1.91
23.221,1.00,-0.54,1.31,1.74
23.232,1.11,-0.15,0.88,1.42
23.241,1.10,0.26,0.36,1.19
23.252,0.95,0.57,-0.23,1.13
23.262,0.86,0.71,-0.78,1.36
23.272,0.70,0.78,-1.16,1.57
23.282,0.49,0.66,-1.22,1.47
23.292,0.42,0.49,-1.03,1.21
23.302,0.25,0.30,-0.80,0.89
23.312,-0.08,0.11,-0.72,0.73
23.322,-0.42,0.01,-0.71,0.83
23.332,-0.76,-0.04,-0.65,1.00
23.342,-0.99,0.03,-0.55,1.13
23.352,-1.13,0.04,-0.36,1.18
23.362,-1.25,-0.04,-0.05,1.25
23.373,-1.48,-0.15,0.26,1.51
23.383,-1.65,-0.32,0.55,1.77
23.393,-1.79,-0.43,0.84,2.03
23.403,-1.94,-0.44,1.01,2.23
23.413,-2.11,-0.36,1.13,2.43
23.423,-2.22,-0.23,1.14,2.50
23.434,-2.17,-0.06,1.03,2.41
23.443,-2.05,0.12,0.80,2.21
23.453,-1.81,0.29,0.45,1.89
23.463,-1.52,0.43,0.16,1.59
23.473,-1.29,0.44,0.01,1.36
23.483,-1.09,0.36,-0.05,1.15
23.494,-1.09,0.19,-0.07,1.11
23.503,-1.22,-0.04,-0.01,1.22
23.514,-1.43,-0.33,0.18,1.48
23.524,-1.67,-0.53,0.37,1.79
23.534,-1.92,-0.61,0.40,2.06
23.544,-2.10,-0.53,0.33,2.19
23.554,-2.16,-0.35,0.23,2.20
23.564,-2.20,-0.12,0.08,2.20
23.574,-2.21,0.19,-0.08,2.22
23.584,-2.15,0.46,-0.30,2.22
23.594,-1.90,0.76,-0.57,2.12
23.604,-1.55,1.11,-0.83,2.08
23.614,-1.38,1.63,-1.07,2.39
23.624,-1.60,2.25,-1.33,3.06
23.635,-2.09,2.82,-1.65,3.88
23.645,-2.46,3.35,-1.81,4.53
23.655,-2.64,3.86,-1.60,4.94
23.665,-2.56,4.33,-1.24,5.18
23.675,-2.42,4.69,-0.75,5.33
23.685,-2.27,4.96,-0.36,5.47
23.695,-1.99,5.04,-0.24,5.42
23.705,-1.60,4.64,-0.26,4.91
23.715,-1.06,3.84,-0.03,3.99
23.725,-0.55,2.75,0.46,2.84
23.735,-0.40,1.53,0.87,1.81
23.745,-0.61,0.34,1.07,1.27
23.756,-1.02,-0.70,1.06,1.63
23.766,-1.64,-1.59,0.97,2.48
23.776,-2.16,-2.10,0.94,3.16
23.786,-2.36,-2.21,1.05,3.40
23.796,-2.21,-2.21,1.09,3.31
23.806,-1.90,-2.14,1.01,3.04
23.816,-1.63,-2.02,0.92,2.76
23.826,-1.48,-1.94,0.82,2.58
23.836,-1.25,-1.82,0.48,2.26
23.846,-1.14,-1.74,0.01,2.08
23.856,-1.09,-1.73,-0.35,2.08
23.866,-0.96,-1.66,-0.54,1.99
23.877,-0.86,-1.57,-0.50,1.86
23.886,-0.80,-1.51,-0.31,1.73
23.897,-0.73,-1.35,-0.10,1.54
23.907,-0.65,-1.09,0.02,1.27
23.917,-0.59,-0.91,-0.05,1.09
23.927,-0.53,-0.82,-0.30,1.02
23.937,-0.52,-0.69,-0.52,1.01
23.947,-0.48,-0.69,-0.77,1.14
23.957,-0.48,-0.75,-0.99,1.33
23.967,-0.54,-0.84,-1.10,1.49
23.977,-0.65,-1.02,-1.14,1.66
23.987,-0.90,-1.11,-1.01,1.75
23.998,-1.02,-1.06,-0.71,1.63
24.007,-1.08,-1.06,-0.42,1.57
24.018,-1.26,-1.09,-0.14,1.67
24.028,-1.46,-1.07,0.11,1.81
24.038,-1.63,-0.99,0.28,1.92
24.048,-1.68,-0.94,0.50,1.99
24.058,-1.63,-0.76,0.68,1.92
24.068,-1.41,-0.42,0.71,1.63
24.078,-1.11,-0.02,0.73,1.33
24.088,-0.93,0.34,0.76,1.25
24.098,-0.85,0.65,0.80,1.33
24.108,-0.60,0.79,0.84,1.30
24.118,-0.25,0.84,0.87,1.23
24.128,-0.13,0.86,0.91,1.26
24.138,-0.10,0.84,0.82,1.18
24.148,-0.18,0.72,0.54,0.92
24.159,-0.36,0.58,0.25,0.72
24.169,-0.35,0.50,0.04,0.61
24.179,-0.19,0.46,-0.06,0.50
24.189,0.02,0.48,-0.12,0.50
24.199,0.17,0.56,-0.27,0.65
24.209,0.26,0.64,-0.42,0.81
24.219,0.32,0.57,-0.55,0.85
24.229,0.35,0.47,-0.49,0.77
24.239,0.47,0.41,-0.26,0.68
24.249,0.77,0.34,0.19,0.86
24.260,0.94,0.17,0.65,1.16
24.269,1.15,-0.06,0.92,1.48
24.280,1.48,-0.16,1.13,1.87
24.290,1.79,-0.22,1.23,2.18
24.300,1.86,-0.35,1.14,2.21
24.310,1.80,-0.48,0.87,2.06
24.320,1.66,-0.55,0.52,1.83
24.330,1.56,-0.60,0.21,1.68
24.340,1.54,-0.57,0.03,1.64
24.350,1.53,-0.50,-0.06,1.61
24.360,1.53,-0.51,-0.03,1.61
24.370,1.58,-0.53,0.09,1.67
24.380,1.60,-0.67,0.18,1.74
24.390,1.58,-0.84,0.23,1.81
24.401,1.55,-1.03,0.33,1.89
24.411,1.39,-1.14,0.35,1.83
24.421,1.06,-1.08,0.18,1.53
24.431,0.66,-0.97,-0.20,1.19
24.441,0.53,-0.87,-0.72,1.25
24.451,0.57,-0.58,-1.03,1.32
24.461,0.74,-0.31,-0.90,1.20
24.471,1.22,-0.22,-0.58,1.37
24.481,1.61,0.01,-0.46,1.68
24.491,1.67,0.33,-0.68,1.83
24.501,1.76,0.66,-1.18,2.22
24.511,1.90,1.08,-1.81,2.84
24.522,2.18,1.44,-2.23,3.43
24.531,2.61,1.60,-2.48,3.94
24.542,3.10,1.78,-2.66,4.46
24.552,3.56,1.80,-2.87,4.91
24.562,4.03,1.67,-3.05,5.32
24.572,4.49,1.53,-3.14,5.69
24.582,4.96,1.39,-3.00,5.96
24.592,5.20,1.11,-2.59,5.92
24.602,5.21,0.67,-2.01,5.62
24.612,4.91,0.20,-1.38,5.11
24.622,4.31,-0.18,-0.95,4.41
24.632,3.64,-0.47,-0.69,3.73
24.642,3.17,-0.57,-0.69,3.29
24.652,2.78,-0.67,-0.87,2.99
24.663,2.32,-0.69,-1.19,2.70
24.673,1.90,-0.71,-1.50,2.52
24.683,1.76,-0.70,-1.64,2.50
24.693,1.69,-0.65,-1.54,2.38
24.703,1.87,-0.59,-1.23,2.32
24.713,2.11,-0.53,-0.80,2.32
24.723,2.23,-0.45,-0.28,2.29
24.733,2.29,-0.30,0.12,2.31
24.743,2.12,-0.14,0.37,2.16
24.753,1.91,-0.01,0.55,1.98
24.764,1.71,0.08,0.69,1.85
24.773,1.51,0.07,0.69,1.67
24.784,1.26,0.13,0.71,1.45
24.794,1.08,0.14,0.61,1.25
24.804,1.14,0.19,0.48,1.25
24.814,1.19,0.18,0.48,1.30
24.824,1.05,0.17,0.43,1.15
24.834,0.76,0.20,0.32,0.85
24.844,0.47,0.20,0.21,0.56
24.854,0.34,0.30,0.11,0.47
24.864,0.15,0.43,0.20,0.49
24.874,0.11,0.48,0.40,0.63
24.884,0.30,0.48,0.65,0.86
24.894,0.61,0.46,0.97,1.23
24.905,0.94,0.57,1.16,1.60
24.915,1.20,0.69,1.40,1.97
24.925,1.32,0.80,1.63,2.24
24.935,1.52,0.91,1.82,2.54
24.945,1.63,0.94,1.94,2.70
24.955,1.69,0.90,1.99,2.76
24.965,1.63,0.91,2.04,2.77
24.975,1.31,0.76,1.93,2.45
24.985,0.83,0.37,1.67,1.90
24.995,0.42,0.07,1.35,1.42
25.005,0.08,-0.16,1.12,1.13
25.015,-0.15,-0.40,0.95,1.05
25.026,-0.37,-0.65,0.82,1.11
25.035,-0.54,-0.80,0.61,1.14
25.046,-0.69,-0.81,0.39,1.14
25.056,-0.88,-0.84,0.22,1.23
25.066,-0.95,-0.79,0.14,1.24
25.076,-1.03,-0.75,0.16,1.28
25.086,-1.15,-0.77,0.38,1.44
25.096,-1.25,-0.92,0.66,1.68
25.106,-1.29,-1.11,0.88,1.91
25.116,-1.47,-1.17,0.94,2.10
25.126,-1.69,-1.13,0.82,2.20
25.136,-1.84,-1.07,0.70,2.24
25.146,-1.83,-0.97,0.80,2.22
25.156,-1.69,-0.76,0.96,2.08
25.167,-1.54,-0.60,1.00,1.93
25.177,-1.42,-0.51,0.98,1.80
25.187,-1.23,-0.46,0.93,1.61
25.197,-1.10,-0.39,0.87,1.46
25.207,-1.11,-0.35,0.74,1.38
25.217,-1.20,-0.34,0.57,1.37
25.227,-1.29,-0.26,0.34,1.36
25.237,-1.30,-0.06,0.23,1.32
25.247,-1.33,0.10,0.40,1.39
25.257,-1.24,0.15,0.61,1.38
25.267,-1.16,0.15,0.86,1.45
25.277,-1.16,0.16,1.16,1.64
25.287,-1.15,0.17,1.42,1.83
25.297,-0.99,0.26,1.77,2.04
25.308,-0.81,0.48,2.06,2.27
25.318,-0.80,0.72,2.03,2.30
25.328,-0.81,0.99,1.67,2.10
25.338,-0.98,1.31,1.10,1.97
25.348,-1.37,1.59,0.46,2.15
25.358,-1.78,1.72,-0.02,2.48
25.368,-2.11,1.79,-0.15,2.77
25.378,-2.39,1.78,-0.03,2.98
25.388,-2.59,1.62,0.36,3.08
25.398,-2.70,1.38,1.10,3.23
25.409,-2.73,1.17,1.92,3.54
25.418,-2.66,1.00,2.67,3.90
25.429,-2.41,0.86,3.17,4.07
25.439,-1.79,0.86,3.25,3.80
25.449,-1.26,1.10,2.85,3.31
25.459,-0.90,1.59,2.04,2.73
25.469,-0.79,1.95,1.00,2.33
25.479,-0.80,1.97,0.01,2.13
25.489,-1.01,1.79,-0.70,2.17
25.499,-1.30,1.42,-0.97,2.16
25.509,-1.38,0.98,-0.83,1.89
25.519,-1.43,0.67,-0.22,1.59
25.529,-1.44,0.32,0.37,1.52
25.539,-1.49,-0.04,0.73,1.66
25.550,-1.57,-0.29,0.94,1.85
25.560,-1.59,-0.38,0.87,1.85
25.570,-1.56,-0.37,0.59,1.71
25.580,-1.53,-0.29,0.22,1.58
25.590,-1.45,-0.17,-0.02,1.46
25.600,-1.26,-0.08,-0.06,1.26
25.610,-1.10,-0.03,0.09,1.10
25.620,-1.04,-0.18,0.29,1.10
25.630,-1.08,-0.26,0.64,1.29
25.640,-1.13,-0.33,1.09,1.60
25.650,-1.13,-0.43,1.46,1.90
25.660,-1.12,-0.38,1.77,2.13
25.671,-1.00,-0.36,1.88,2.16
25.680,-0.99,-0.36,1.67,1.97
25.691,-1.01,-0.29,1.22,1.61
25.701,-0.95,-0.10,0.72,1.20
25.711,-0.82,0.00,0.29,0.87
25.721,-0.72,0.11,-0.06,0.73
25.731,-0.63,0.20,-0.23,0.70
25.741,-0.50,0.31,-0.23,0.64
25.751,-0.39,0.32,-0.02,0.51
25.761,-0.39,0.26,0.38,0.60
25.771,-0.49,0.08,0.72,0.88
25.781,-0.60,-0.17,0.87,1.07
25.792,-0.90,-0.43,0.82,1.30
25.801,-1.15,-0.61,0.66,1.46
25.812,-1.13,-0.60,0.50,1.38
25.822,-1.07,-0.40,0.36,1.20
25.832,-1.00,-0.27,0.24,1.07
25.842,-0.97,-0.28,0.05,1.01
25.852,-0.94,-0.29,-0.12,0.99
25.862,-0.88,-0.27,-0.23,0.95
25.872,-0.82,-0.28,-0.25,0.90
25.882,-0.70,-0.32,-0.14,0.78
25.892,-0.50,-0.32,0.10,0.60
25.902,-0.10,-0.26,0.41,0.49
25.912,0.38,-0.18,0.52,0.67
25.922,0.65,-0.14,0.49,0.82
25.933,0.74,-0.06,0.35,0.82
25.943,0.91,-0.01,0.13,0.92
25.953,1.18,0.07,-0.14,1.19
25.963,1.43,0.19,-0.42,1.50
25.973,1.58,0.31,-0.54,1.70
25.983,1.68,0.38,-0.49,1.79
25.993,1.72,0.29,-0.31,1.77
26.003,1.73,0.15,-0.05,1.74
26.013,1.58,-0.05,0.19,1.59
26.023,1.37,-0.24,0.30,1.43
26.033,1.11,-0.40,0.21,1.20
26.043,0.90,-0.36,0.12,0.98
26.053,0.86,-0.26,0.06,0.90
26.063,0.94,-0.11,0.01,0.94
26.074,1.10,0.00,0.01,1.10
26.084,1.24,-0.00,-0.01,1.24
26.094,1.37,-0.08,-0.04,1.37
26.104,1.50,-0.28,0.01,1.53
26.114,1.59,-0.38,0.10,1.64
26.124,1.71,-0.44,0.07,1.76
26.134,1.81,-0.49,-0.08,1.88
26.144,1.88,-0.45,-0.32,1.96
26.154,1.84,-0.53,-0.59,2.00
26.164,1.69,-0.68,-0.80,1.99
26.175,1.49,-0.79,-0.90,1.91
26.184,1.29,-0.92,-0.92,1.83
26.195,1.16,-1.09,-0.92,1.83
26.205,1.09,-1.14,-0.88,1.81
26.215,1.13,-1.06,-0.92,1.80
26.225,1.17,-0.94,-1.07,1.84
26.235,1.20,-0.74,-1.35,1.95
26.245,1.30,-0.55,-1.54,2.09
26.255,1.48,-0.39,-1.56,2.19
26.265,1.76,-0.19,-1.55,2.35
26.275,1.99,0.05,-1.64,2.58
26.285,2.22,0.27,-1.80,2.87
26.295,2.46,0.35,-1.87,3.11
26.305,2.61,0.30,-1.73,3.14
26.316,2.68,0.21,-1.47,3.06
26.325,2.50,0.06,-1.33,2.84
26.336,2.04,-0.12,-1.38,2.47
26.346,1.47,-0.42,-1.34,2.03
26.356,1.04,-0.73,-1.19,1.74
26.366,0.82,-0.90,-0.98,1.56
26.376,0.71,-1.04,-0.75,1.46
26.386,0.69,-1.16,-0.76,1.55
26.396,0.60,-1.15,-0.91,1.58
26.406,0.63,-1.13,-1.01,1.64
26.416,0.82,-0.97,-0.89,1.55
26.427,1.03,-0.80,-0.45,1.38
26.437,1.34,-0.70,-0.04,1.51
26.447,1.63,-0.46,0.25,1.71
26.457,1.73,-0.28,0.34,1.79
26.467,1.83,-0.13,0.23,1.85
26.477,1.90,0.01,0.12,1.91
26.487,2.03,0.12,0.08,2.03
26.497,2.06,0.21,0.01,2.07
26.507,2.00,0.11,-0.07,2.01
26.517,1.86,-0.05,-0.17,1.87
26.527,1.74,-0.15,-0.23,1.76
26.537,1.56,-0.31,-0.29,1.62
26.547,1.36,-0.45,-0.40,1.48
26.557,1.16,-0.54,-0.48,1.37
26.567,1.04,-0.59,-0.51,1.30
26.578,1.08,-0.54,-0.42,1.28
26.588,1.34,-0.45,-0.10,1.42
26.598,1.63,-0.42,0.26,1.70
26.608,1.73,-0.45,0.39,1.83
26.618,1.74,-0.47,0.27,1.82
26.628,1.67,-0.56,0.11,1.77
26.638,1.37,-0.75,-0.02,1.56
26.648,0.90,-0.96,-0.02,1.31
26.658,0.53,-1.08,0.26,1.23
26.668,0.46,-1.08,0.58,1.31
26.679,0.56,-0.89,0.88,1.37
26.688,0.60,-0.54,0.95,1.25
26.699,0.63,-0.36,0.76,1.05
26.709,0.61,-0.26,0.48,0.82
26.719,0.70,-0.13,0.22,0.75
26.729,0.77,-0.10,-0.01,0.78
26.739,0.77,-0.05,-0.19,0.80
26.749,0.74,0.05,-0.30,0.80
26.759,0.71,0.15,-0.31,0.79
26.769,0.71,0.25,-0.18,0.77
26.779,0.79,0.39,-0.03,0.88
26.789,0.81,0.52,0.05,0.97
26.799,0.66,0.61,-0.03,0.90
26.809,0.53,0.66,-0.12,0.85
26.820,0.46,0.70,-0.34,0.90
26.829,0.37,0.78,-0.67,1.09
26.840,0.20,0.84,-0.95,1.28
26.850,-0.09,0.72,-1.00,1.23
26.860,-0.41,0.47,-0.86,1.06
26.870,-0.69,0.15,-0.50,0.87
26.880,-0.97,-0.15,-0.03,0.98
26.890,-1.20,-0.40,0.35,1.31
26.900,-1.35,-0.54,0.63,1.59
26.910,-1.42,-0.65,0.75,1.74
26.920,-1.36,-0.71,0.79,1.73
26.930,-1.25,-0.72,0.67,1.59
26.941,-1.11,-0.67,0.45,1.37
26.950,-1.06,-0.56,0.09,1.21
26.961,-1.12,-0.63,-0.23,1.31
26.971,-1.22,-0.76,-0.30,1.47
26.981,-1.28,-0.82,-0.11,1.52
26.991,-1.21,-0.85,0.32,1.51
27.001,-1.02,-0.93,0.73,1.56
27.011,-1.06,-0.86,0.90,1.63
27.021,-1.20,-0.79,0.89,1.69
27.031,-1.34,-0.65,0.77,1.68
27.041,-1.41,-0.42,0.62,1.59
27.051,-1.40,-0.17,0.41,1.47
27.061,-1.48,0.05,0.20,1.49
27.071,-1.53,0.25,0.07,1.55
27.082,-1.64,0.45,0.12,1.71
27.091,-1.78,0.69,0.35,1.94
27.102,-1.88,0.88,0.73,2.20
27.112,-1.98,1.25,0.99,2.54
27.122,-1.97,1.65,1.03,2.77
27.132,-1.85,2.05,0.89,2.90
27.142,-1.74,2.53,0.66,3.14
27.152,-1.40,2.86,0.52,3.23
27.162,-0.94,2.97,0.37,3.13
27.172,-0.71,3.06,-0.02,3.14
27.182,-0.75,2.95,-0.70,3.13
27.192,-1.12,2.54,-1.41,3.12
27.202,-1.68,1.77,-1.57,2.90
27.212,-2.16,0.91,-1.18,2.63
27.223,-2.33,0.19,-0.59,2.41
27.233,-2.24,-0.26,-0.01,2.26
27.243,-1.89,-0.33,0.32,1.95
27.253,-1.46,-0.06,0.36,1.50
27.263,-1.11,0.09,0.17,1.12
27.273,-0.83,0.23,-0.29,0.91
27.283,-0.57,0.36,-0.90,1.13
27.293,-0.28,0.36,-1.39,1.46
27.303,-0.20,0.23,-1.72,1.74
27.313,-0.39,0.12,-1.95,1.99
27.323,-0.77,-0.08,-2.13,2.27
27.333,-1.38,-0.39,-2.00,2.46
27.344,-1.98,-0.68,-1.42,2.53
27.354,-2.25,-0.85,-0.61,2.48
27.364,-2.44,-0.94,0.19,2.62
27.374,-2.50,-0.92,0.84,2.79
27.384,-2.49,-0.81,1.40,2.97
27.394,-2.28,-0.70,1.87,3.03
27.404,-1.98,-0.53,2.19,3.00
27.414,-1.68,-0.33,2.24,2.82
27.424,-1.40,-0.20,2.11,2.54
27.434,-1.12,-0.09,1.86,2.17
27.444,-1.04,-0.00,1.59,1.90
27.454,-1.07,-0.02,1.42,1.78
27.465,-1.13,-0.03,1.24,1.68
27.474,-1.20,-0.11,1.22,1.71
27.485,-1.25,-0.29,1.32,1.85
27.495,-1.24,-0.48,1.45,1.97
27.505,-1.18,-0.61,1.52,2.02
27.515,-1.14,-0.72,1.50,2.02
27.525,-1.16,-0.87,1.20,1.88
27.535,-1.22,-0.96,0.72,1.71
27.545,-1.16,-0.96,0.22,1.52
27.555,-1.10,-0.90,-0.16,1.43
27.565,-1.09,-0.81,-0.42,1.42
27.575,-0.85,-0.82,-0.47,1.27
27.585,-0.91,-0.88,-0.30,1.31
27.595,-0.99,-0.72,-0.07,1.23
27.606,-0.93,-0.66,0.22,1.16
27.616,-0.75,-0.59,0.49,1.07
27.626,-0.73,-0.47,0.54,1.02
27.636,-0.88,-0.32,0.37,1.01
27.646,-0.81,-0.24,0.09,0.85
27.656,-0.82,-0.04,-0.35,0.89
27.666,-0.87,0.18,-1.00,1.33
27.676,-0.90,0.46,-1.53,1.84
27.686,-0.81,0.57,-1.72,1.99
27.696,-0.43,0.61,-1.46,1.64
27.706,0.10,0.69,-0.80,1.06
27.716,0.82,0.84,0.13,1.18
27.727,1.49,0.88,0.86,1.93
27.737,1.84,0.91,1.20,2.37
27.747,1.82,0.81,1.12,2.28
27.757,1.63,0.70,0.69,1.90
27.767,1.27,0.64,0.16,1.43
27.777,0.96,0.47,-0.19,1.08
27.787,0.77,0.29,-0.23,0.85
27.797,0.89,0.20,-0.05,0.91
27.807,1.10,0.11,0.18,1.12
27.817,1.46,0.06,0.58,1.57
27.828,1.87,0.01,0.94,2.10
27.837,2.19,-0.06,1.15,2.48
27.848,2.39,-0.04,1.11,2.63
27.857,2.33,-0.06,0.75,2.45
27.868,2.19,-0.14,0.17,2.20
27.878,1.89,-0.15,-0.53,1.97
27.888,1.42,-0.13,-1.14,1.82
27.898,1.13,-0.22,-1.42,1.82
27.908,0.91,-0.34,-1.36,1.67
27.918,0.92,-0.40,-0.98,1.40
27.928,1.01,-0.36,-0.66,1.26
27.938,1.14,-0.36,-0.56,1.32
27.948,1.28,-0.28,-0.73,1.50
27.958,1.31,-0.05,-0.95,1.62
27.969,1.43,0.28,-0.86,1.69
27.978,1.61,0.76,-0.48,1.84
27.989,2.06,1.11,0.01,2.34
27.999,2.51,1.30,0.53,2.88
28.009,2.83,1.27,0.90,3.23
28.019,3.00,1.17,1.10,3.40
28.029,3.09,1.17,1.13,3.49
28.039,3.31,1.11,1.09,3.66
28.049,3.54,1.06,0.94,3.81
28.059,3.54,1.03,0.59,3.73
28.069,3.50,0.82,0.14,3.60
28.079,3.39,0.61,-0.22,3.45
28.089,3.18,0.54,-0.36,3.24
28.099,2.97,0.33,-0.34,3.01
28.110,2.79,-0.03,-0.32,2.81
28.120,2.52,-0.28,-0.42,2.57
28.130,2.09,-0.49,-0.53,2.21
28.140,1.78,-0.68,-0.68,2.02
28.150,1.54,-0.69,-0.67,1.82
28.160,1.41,-0.58,-0.52,1.61
28.170,1.47,-0.38,-0.32,1.56
28.180,1.52,-0.28,-0.16,1.55
28.190,1.47,-0.32,-0.10,1.51
28.200,1.34,-0.38,-0.07,1.39
28.210,1.30,-0.45,0.10,1.38
28.220,1.37,-0.33,0.22,1.43
28.231,1.50,-0.27,0.26,1.54
28.240,1.57,-0.22,0.23,1.60
28.251,1.57,-0.20,0.07,1.59
28.261,1.53,-0.20,-0.04,1.55
28.271,1.61,-0.22,0.06,1.62
28.281,1.62,-0.31,0.28,1.67
28.291,1.59,-0.42,0.36,1.69
28.301,1.49,-0.54,0.31,1.62
28.311,1.31,-0.64,0.28,1.49
28.321,1.17,-0.78,0.36,1.45
28.331,1.08,-0.86,0.47,1.45
28.341,1.08,-0.92,0.61,1.55
28.351,1.23,-0.87,0.59,1.62
28.361,1.25,-0.81,0.43,1.55
28.372,1.08,-0.84,0.18,1.38
28.382,0.99,-0.87,-0.19,1.33
28.392,0.92,-0.92,-0.44,1.37
28.402,0.77,-1.00,-0.51,1.36
28.412,0.49,-1.04,-0.64,1.31
28.422,0.16,-1.03,-0.81,1.32
28.432,-0.17,-0.94,-0.93,1.34
28.442,-0.46,-0.74,-1.01,1.34
28.452,-0.66,-0.46,-0.95,1.25
28.462,-0.63,-0.19,-0.77,1.01
28.472,-0.46,0.01,-0.50,0.68
28.482,-0.19,0.34,-0.30,0.49
28.493,0.22,0.56,-0.16,0.62
28.503,0.43,0.65,-0.14,0.79
28.513,0.45,0.69,-0.16,0.84
28.523,0.33,0.62,-0.22,0.73
28.533,0.09,0.49,-0.21,0.54
28.543,-0.28,0.24,-0.10,0.39
28.553,-0.64,0.02,-0.16,0.66
28.563,-1.00,-0.13,-0.26,1.04
28.573,-1.25,-0.25,-0.30,1.31
28.583,-1.29,-0.27,-0.16,1.32
28.593,-1.05,-0.26,0.07,1.09
28.603,-0.86,-0.11,0.15,0.88
28.614,-0.82,0.01,0.05,0.82
28.623,-0.82,0.18,-0.04,0.84
28.634,-0.84,0.39,-0.07,0.93
28.644,-1.05,0.50,-0.08,1.16
28.654,-1.22,0.57,0.01,1.35
28.664,-1.32,0.53,0.31,1.45
28.674,-1.42,0.42,0.81,1.69
28.684,-1.52,0.32,1.14,1.92
28.694,-1.58,0.20,1.24,2.02
28.704,-1.61,0.15,1.16,2.00
28.714,-1.62,0.12,1.05,1.93
28.724,-1.46,0.10,0.86,1.69
28.734,-1.30,0.17,0.70,1.49
28.744,-1.23,0.12,0.56,1.35
28.755,-1.07,-0.02,0.59,1.22
28.765,-0.91,-0.17,0.72,1.17
28.775,-0.93,-0.25,0.84,1.28
28.785,-1.15,-0.14,0.83,1.42
28.795,-1.35,0.06,0.70,1.52
28.805,-1.52,0.34,0.58,1.66
28.815,-1.65,0.68,0.51,1.86
28.825,-1.71,1.00,0.44,2.03
28.835,-1.69,1.22,0.32,2.11
28.845,-1.53,1.31,0.32,2.04
28.855,-1.37,1.45,0.37,2.03
28.865,-1.17,1.59,0.36,2.01
28.876,-0.92,1.59,0.20,1.85
28.886,-0.70,1.55,0.02,1.71
28.896,-0.72,1.36,-0.27,1.57
28.906,-0.91,1.18,-0.64,1.62
28.916,-1.20,1.08,-1.13,1.97
28.926,-1.51,1.10,-1.62,2.47
28.936,-1.64,1.19,-1.93,2.80
28.946,-1.66,1.19,-1.86,2.76
28.956,-1.54,0.99,-1.33,2.26
28.966,-1.17,0.62,-0.61,1.46
28.976,-0.96,0.15,-0.17,0.99
28.986,-1.08,-0.24,-0.22,1.13
28.997,-1.43,-0.58,-0.62,1.66
29.007,-1.96,-0.84,-1.06,2.39
29.017,-2.63,-1.00,-1.31,3.10
29.027,-3.03,-1.00,-1.40,3.49
29.037,-3.12,-0.69,-1.30,3.45
29.047,-3.12,-0.43,-0.98,3.30
29.057,-2.96,-0.30,-0.43,3.01
29.067,-2.47,-0.20,0.31,2.50
29.077,-1.95,-0.08,0.91,2.16
29.087,-1.54,0.11,1.27,2.00
29.098,-1.23,0.29,1.52,1.98
29.107,-0.91,0.34,1.66,1.92
29.117,-0.71,0.51,1.70,1.91
29.127,-0.55,0.78,1.53,1.81
29.138,-0.54,0.96,1.20,1.63
29.148,-0.67,0.98,0.80,1.44
29.158,-0.86,0.81,0.50,1.29
29.168,-1.04,0.54,0.38,1.23
29.178,-1.02,0.32,0.44,1.16
29.188,-0.93,0.17,0.57,1.11
29.198,-0.87,0.08,0.72,1.13
29.208,-0.79,0.09,0.82,1.14
29.218,-0.72,0.10,0.87,1.13
29.228,-0.71,0.14,0.84,1.11
29.238,-0.62,0.20,0.80,1.04
29.248,-0.65,0.21,0.69,0.97
29.259,-0.69,0.21,0.46,0.86
29.268,-0.74,0.12,0.20,0.77
29.279,-0.86,0.03,0.08,0.86
29.289,-0.93,-0.10,0.07,0.94
29.299,-0.94,-0.32,0.17,1.01
29.309,-0.99,-0.47,0.29,1.13
29.319,-1.01,-0.57,0.33,1.21
29.329,-1.02,-0.58,0.32,1.22
29.339,-0.93,-0.51,0.35,1.12
29.349,-0.75,-0.39,0.38,0.93
29.359,-0.54,-0.23,0.41,0.72
29.369,-0.39,-0.08,0.43,0.59
29.380,-0.21,0.10,0.51,0.56
29.389,0.03,0.20,0.68,0.71
29.400,0.34,0.36,0.92,1.05
29.410,0.61,0.50,1.08,1.34
29.420,0.84,0.54,1.10,1.49
29.430,0.98,0.48,1.02,1.49
29.440,0.94,0.35,0.80,1.28
29.450,0.78,0.17,0.46,0.93
29.460,0.51,0.00,0.21,0.55
29.470,0.29,-0.16,0.03,0.33
29.480,0.15,-0.28,-0.05,0.32
29.490,0.05,-0.39,0.04,0.39
29.500,0.02,-0.44,0.23,0.50
29.510,0.11,-0.41,0.46,0.63
29.521,0.35,-0.33,0.75,0.89
29.531,0.67,-0.26,1.05,1.27
29.541,1.00,-0.25,1.17,1.56
29.551,1.20,-0.34,1.05,1.63
29.561,1.27,-0.54,0.77,1.58
29.571,1.23,-0.75,0.43,1.51
29.581,1.22,-0.98,0.12,1.57
29.591,1.24,-1.13,-0.18,1.68
29.601,1.33,-1.26,-0.37,1.87
29.611,1.44,-1.35,-0.48,2.03
29.621,1.51,-1.36,-0.44,2.08
29.631,1.69,-1.29,-0.26,2.14
29.642,1.96,-1.06,-0.07,2.23
29.651,2.07,-0.76,0.04,2.20
29.662,2.05,-0.63,-0.10,2.14
29.672,1.99,-0.50,-0.34,2.08
29.682,2.09,-0.23,-0.52,2.17
29.692,2.35,0.14,-0.74,2.47
29.702,2.61,0.47,-1.07,2.86
29.712,2.87,0.86,-1.40,3.30
29.722,3.04,1.17,-1.56,3.61
29.732,3.23,1.32,-1.63,3.85
29.742,3.21,1.46,-1.62,3.88
29.752,3.03,1.52,-1.49,3.70
29.763,2.81,1.43,-1.35,3.43
29.772,2.59,1.31,-1.18,3.13
29.783,2.33,1.17,-0.99,2.79
29.793,2.06,0.95,-0.94,2.45
29.803,1.96,0.79,-1.08,2.37
29.813,1.91,0.69,-1.23,2.37
29.823,2.00,0.57,-1.25,2.43
29.833,2.23,0.47,-1.00,2.49
29.843,2.44,0.38,-0.55,2.53
29.853,2.50,0.16,-0.07,2.51
29.863,2.28,-0.13,0.35,2.32
29.873,2.00,-0.43,0.70,2.16
29.883,1.56,-0.75,0.87,1.94
29.893,1.08,-0.93,0.91,1.69
29.904,0.75,-1.02,0.80,1.50
29.914,0.44,-1.01,0.53,1.22
29.924,0.29,-0.89,0.26,0.97
29.934,0.27,-0.78,0.12,0.84
29.944,0.37,-0.63,0.03,0.73
29.954,0.45,-0.44,-0.01,0.63
29.964,0.60,-0.31,-0.05,0.67
29.974,0.80,-0.16,-0.10,0.82
29.984,0.91,-0.13,-0.19,0.94
29.994,0.91,-0.11,-0.27,0.96
30.004,0.91,-0.07,-0.24,0.94
30.014,0.92,-0.01,-0.15,0.93
30.025,0.92,0.04,-0.07,0.92
30.034,0.75,0.05,-0.01,0.76
30.045,0.67,0.00,0.11,0.68
30.055,0.69,-0.03,0.30,0.75
30.065,0.63,-0.11,0.47,0.80
30.075,0.56,-0.27,0.60,0.87
30.085,0.42,-0.46,0.61,0.87
30.095,0.30,-0.56,0.56,0.85
30.105,0.30,-0.61,0.47,0.82
30.115,0.27,-0.63,0.35,0.77
30.125,0.21,-0.63,0.18,0.69
30.135,0.22,-0.61,-0.03,0.65
30.145,0.24,-0.51,-0.21,0.60
30.155,0.32,-0.41,-0.33,0.61
30.166,0.34,-0.29,-0.54,0.70
30.176,0.17,-0.15,-0.76,0.79
30.186,0.06,-0.05,-0.83,0.83
30.196,0.01,0.08,-0.75,0.76
30.206,-0.08,0.20,-0.59,0.63
30.216,-0.08,0.40,-0.47,0.63
30.226,0.01,0.66,-0.43,0.79
30.236,0.12,0.82,-0.42,0.93
30.246,0.26,0.92,-0.39,1.03
30.256,0.39,0.87,-0.32,1.00
30.266,0.38,0.71,-0.21,0.83
30.276,0.28,0.49,-0.10,0.57
30.287,0.07,0.17,-0.11,0.22
30.297,-0.36,-0.16,-0.21,0.45
30.307,-0.87,-0.46,-0.32,1.03
30.317,-1.13,-0.63,-0.29,1.32
30.327,-1.11,-0.57,-0.28,1.28
30.337,-1.30,-0.51,-0.35,1.44
30.347,-1.53,-0.46,-0.40,1.64
30.357,-1.49,-0.35,-0.27,1.55
30.367,-1.41,-0.26,-0.03,1.43
30.377,-1.29,-0.19,0.14,1.31
30.387,-1.19,-0.13,0.19,1.21
30.397,-1.17,-0.13,0.03,1.18
30.408,-1.23,-0.05,-0.28,1.26
30.417,-1.21,0.04,-0.46,1.30
30.428,-1.01,0.20,-0.33,1.08
30.438,-0.67,0.33,0.05,0.75
30.448,-0.34,0.35,0.47,0.67
30.458,-0.20,0.23,0.75,0.81
30.468,-0.32,-0.02,0.83,0.89
30.478,-0.60,-0.30,0.76,1.01
30.488,-0.82,-0.52,0.68,1.19
30.498,-1.04,-0.58,0.60,1.33
30.508,-1.24,-0.55,0.57,1.47
30.518,-1.38,-0.33,0.65,1.56
30.529,-1.44,-0.03,0.71,1.61
30.538,-1.48,0.30,0.63,1.64
30.549,-1.44,0.62,0.21,1.58
30.559,-1.37,0.92,-0.34,1.69
30.569,-1.10,1.19,-0.74,1.78
30.579,-0.72,1.43,-0.98,1.88
30.589,-0.42,1.57,-1.12,1.97
30.599,-0.33,1.56,-1.11,1.94
30.609,-0.33,1.44,-0.79,1.67
30.619,-0.38,1.20,-0.35,1.31
30.629,-0.51,1.02,-0.04,1.14
30.639,-0.64,0.90,0.09,1.11
30.649,-0.75,0.75,-0.06,1.06
30.659,-0.97,0.58,-0.46,1.22
30.670,-1.15,0.40,-1.01,1.58
30.680,-1.15,0.32,-1.51,1.92
30.690,-1.12,0.19,-1.72,2.06
30.700,-0.93,-0.11,-1.79,2.02
30.710,-0.75,-0.41,-1.66,1.87
30.720,-0.86,-0.69,-1.36,1.75
30.730,-1.18,-1.00,-1.09,1.90
30.740,-1.58,-1.15,-0.77,2.10
30.750,-1.95,-1.09,-0.35,2.26
30.760,-2.19,-0.95,-0.01,2.39
30.770,-2.21,-0.76,0.32,2.36
30.780,-2.14,-0.61,0.67,2.32
30.790,-2.07,-0.53,0.99,2.36
30.800,-1.94,-0.53,1.26,2.37
30.811,-1.74,-0.44,1.50,2.34
30.821,-1.57,-0.32,1.68,2.32
30.831,-1.48,-0.22,1.73,2.29
30.841,-1.42,-0.10,1.65,2.18
30.851,-1.38,-0.00,1.51,2.04
30.861,-1.30,0.05,1.37,1.88
30.871,-1.21,0.09,1.23,1.72
30.881,-1.16,0.08,1.06,1.57
30.891,-1.06,-0.02,0.90,1.40
30.901,-0.96,-0.07,0.77,1.23
30.911,-0.89,-0.13,0.77,1.18
30.921,-0.90,-0.25,0.75,1.20
30.932,-0.94,-0.32,0.68,1.20
30.942,-1.10,-0.36,0.52,1.27
30.952,-1.33,-0.43,0.22,1.41
30.962,-1.53,-0.48,-0.07,1.60
30.972,-1.62,-0.49,-0.21,1.71
30.982,-1.61,-0.35,-0.23,1.67
30.992,-1.63,-0.25,-0.02,1.65
31.002,-1.48,-0.36,0.32,1.56
31.012,-1.27,-0.35,0.61,1.45
31.022,-1.04,-0.22,0.77,1.32
31.032,-0.90,-0.08,0.74,1.17
31.042,-0.85,0.11,0.55,1.02
31.052,-0.66,0.31,0.39,0.83
31.063,-0.40,0.48,0.32,0.71
31.073,-0.22,0.62,0.33,0.73
31.083,-0.12,0.69,0.34,0.77
31.093,-0.03,0.66,0.40,0.77
31.103,0.08,0.59,0.50,0.78
31.113,0.24,0.55,0.58,0.83
31.123,0.35,0.55,0.52,0.83
31.133,0.43,0.52,0.27,0.73
31.143,0.55,0.55,-0.05,0.78
31.153,0.77,0.64,-0.35,1.06
31.163,0.98,0.66,-0.57,1.31
31.174,1.09,0.54,-0.60,1.36
31.183,1.20,0.41,-0.51,1.36
31.194,1.27,0.25,-0.28,1.32
31.204,1.32,0.06,0.03,1.32
31.214,1.13,-0.14,0.32,1.19
31.224,0.89,-0.40,0.42,1.06
31.234,0.64,-0.58,0.42,0.96
31.244,0.55,-0.64,0.40,0.93
31.254,0.68,-0.56,0.31,0.93
31.264,0.84,-0.43,0.15,0.95
31.274,1.10,-0.26,-0.03,1.14
31.284,1.35,-0.09,-0.18,1.36
31.295,1.50,-0.05,-0.31,1.53
31.305,1.57,-0.15,-0.34,1.61
31.315,1.52,-0.32,-0.24,1.57
31.325,1.42,-0.52,-0.07,1.51
31.335,1.33,-0.68,0.11,1.50
31.345,1.23,-0.78,0.17,1.46
31.355,1.11,-0.84,0.12,1.40
31.365,1.08,-0.81,-0.13,1.36
31.375,0.89,-0.72,-0.67,1.32
31.385,0.69,-0.67,-1.34,1.65
31.395,0.67,-0.54,-1.73,1.93
31.405,0.85,-0.32,-1.71,1.94
31.415,1.23,-0.08,-1.41,1.88
31.425,1.67,0.13,-1.09,1.99
31.435,1.93,0.26,-0.81,2.11
31.445,2.04,0.32,-0.72,2.18
31.456,2.05,0.47,-0.70,2.22
31.466,2.09,0.68,-0.64,2.29
31.476,2.13,0.86,-0.66,2.38
31.486,1.99,0.93,-0.81,2.34
31.496,1.83,0.83,-1.01,2.25
31.506,1.78,0.66,-1.28,2.29
31.516,1.71,0.50,-1.43,2.28
31.526,1.84,0.38,-1.37,2.32
31.536,2.04,0.36,-1.13,2.36
31.546,2.11,0.30,-0.79,2.27
31.556,1.99,0.18,-0.50,2.06
31.566,1.79,-0.06,-0.11,1.80
31.577,1.59,-0.35,0.28,1.65
31.587,1.31,-0.53,0.51,1.50
31.597,1.15,-0.70,0.56,1.46
31.607,1.07,-0.77,0.40,1.38
31.617,1.02,-0.72,-0.01,1.25
31.627,1.08,-0.47,-0.46,1.27
31.637,1.16,-0.20,-0.80,1.43
31.647,1.32,-0.06,-0.94,1.62
31.657,1.53,0.03,-0.75,1.70
31.667,1.75,0.09,-0.35,1.78
31.678,1.82,0.19,-0.04,1.83
31.687,1.67,0.13,0.17,1.69
31.698,1.44,0.00,0.29,1.47
31.708,1.10,-0.04,0.36,1.16
31.718,0.90,-0.09,0.34,0.96
31.728,0.75,-0.04,0.38,0.84
31.738,0.77,-0.05,0.45,0.89
31.748,0.79,-0.10,0.47,0.92
31.758,0.70,-0.26,0.58,0.94
31.768,0.77,-0.42,0.83,1.21
31.778,0.72,-0.58,1.14,1.47
31.788,0.57,-0.76,1.32,1.63
31.798,0.32,-0.90,1.26,1.58
31.808,0.16,-1.01,1.09,1.49
31.819,0.03,-1.06,0.81,1.34
31.829,-0.05,-1.02,0.55,1.16
31.839,0.04,-0.91,0.26,0.94
31.849,0.18,-0.66,-0.06,0.69
31.859,0.33,-0.46,-0.32,0.65
31.869,0.54,-0.27,-0.45,0.75
31.879,0.70,-0.13,-0.46,0.85
31.889,0.82,0.03,-0.43,0.93
31.899,0.91,0.22,-0.38,1.01
31.909,0.93,0.45,-0.32,1.08
31.919,0.85,0.57,-0.35,1.08
31.929,0.77,0.65,-0.44,1.10
31.940,0.73,0.78,-0.58,1.21
31.949,0.73,0.85,-0.60,1.27
31.960,0.79,0.82,-0.57,1.27
31.970,0.72,0.76,-0.60,1.21
31.980,0.53,0.65,-0.71,1.10
31.990,0.29,0.44,-0.77,0.94
32.000,-0.00,0.09,-0.68,0.69
32.010,-0.26,-0.27,-0.47,0.60
32.020,-0.52,-0.65,-0.28,0.88
32.030,-0.86,-0.99,-0.24,1.33
32.040,-1.20,-1.20,-0.27,1.72
32.050,-1.48,-1.32,-0.30,2.01
32.061,-1.66,-1.28,-0.30,2.11
32.070,-1.81,-1.18,-0.32,2.19
32.081,-1.83,-1.11,-0.27,2.16
32.091,-1.80,-0.95,-0.21,2.05
32.101,-1.71,-0.74,-0.21,1.88
32.111,-1.61,-0.50,-0.28,1.71
32.121,-1.53,-0.23,-0.43,1.60
32.131,-1.28,0.08,-0.39,1.34
32.141,-0.90,0.38,-0.11,0.98
32.151,-0.56,0.60,0.23,0.85
32.161,-0.44,0.73,0.49,0.99
32.171,-0.47,0.68,0.72,1.10
32.181,-0.48,0.57,0.85,1.13
32.191,-0.54,0.47,0.94,1.18
32.201,-0.66,0.48,0.97,1.26
32.212,-0.88,0.52,0.83,1.32
32.222,-1.09,0.53,0.57,1.34
32.232,-1.28,0.61,0.21,1.43
32.242,-1.28,0.77,-0.15,1.51
32.252,-1.13,1.01,-0.33,1.55
32.262,-0.96,1.24,-0.41,1.62
32.272,-0.81,1.39,-0.56,1.70
32.282,-0.66,1.51,-0.69,1.78
32.292,-0.51,1.54,-0.74,1.78
32.302,-0.36,1.46,-0.75,1.69
32.312,-0.28,1.39,-0.77,1.61
32.323,-0.16,1.37,-0.76,1.57
32.332,-0.12,1.41,-0.88,1.67
32.343,-0.22,1.47,-1.20,1.91
32.353,-0.39,1.54,-1.54,2.21
32.363,-0.52,1.55,-1.65,2.32
32.373,-0.49,1.37,-1.39,2.01
32.383,-0.51,0.99,-0.88,1.42
32.393,-0.76,0.42,-0.42,0.96
32.403,-1.13,-0.28,-0.25,1.19
32.413,-1.53,-0.91,-0.15,1.78
32.423,-1.86,-1.42,-0.19,2.35
32.433,-2.15,-1.73,-0.30,2.78
32.443,-2.46,-1.89,-0.46,3.13
32.453,-2.62,-1.93,-0.63,3.32
32.464,-2.67,-1.82,-0.62,3.29
32.474,-2.57,-1.59,-0.33,3.04
32.484,-2.38,-1.34,-0.04,2.73
32.494,-2.27,-1.10,0.13,2.52
32.504,-2.23,-0.84,0.31,2.40
32.514,-2.05,-0.63,0.56,2.21
32.524,-1.82,-0.39,0.81,2.03
32.534,-1.54,-0.13,0.95,1.82
32.544,-1.30,0.13,0.98,1.63
32.554,-1.11,0.21,0.95,1.48
32.564,-1.00,0.18,0.93,1.38
32.574,-0.96,0.14,0.92,1.34
32.585,-0.96,0.08,0.91,1.33
32.594,-1.03,0.06,0.85,1.34
32.605,-1.22,0.07,0.68,1.40
32.615,-1.38,0.04,0.48,1.46
32.625,-1.46,0.02,0.38,1.51
32.635,-1.43,-0.01,0.36,1.47
32.645,-1.32,-0.03,0.28,1.34
32.655,-1.23,0.00,0.09,1.24
32.665,-1.17,-0.04,-0.16,1.19
32.675,-1.12,-0.08,-0.38,1.18
32.685,-1.06,-0.04,-0.48,1.17
32.695,-0.96,0.01,-0.49,1.08
32.706,-0.95,0.03,-0.43,1.04
32.715,-0.90,0.05,-0.26,0.94
32.726,-0.79,0.11,0.04,0.80
32.736,-0.49,0.16,0.30,0.59
32.746,-0.34,0.23,0.42,0.59
32.756,-0.31,0.33,0.41,0.61
32.766,-0.29,0.35,0.40,0.60
32.776,-0.21,0.39,0.43,0.62
32.786,-0.20,0.43,0.39,0.61
32.796,-0.25,0.41,0.27,0.55
32.806,-0.28,0.36,0.26,0.53
32.816,-0.27,0.27,0.38,0.54
32.826,-0.13,0.17,0.55,0.59
32.836,0.15,0.14,0.65,0.68
32.847,0.42,0.13,0.58,0.73
32.857,0.66,0.18,0.37,0.78
32.867,0.84,0.27,0.02,0.89
32.877,0.86,0.29,-0.32,0.97
32.887,0.81,0.27,-0.53,1.01
32.897,0.63,0.09,-0.42,0.76
32.907,0.45,-0.18,-0.05,0.49
32.917,0.29,-0.48,0.40,0.69
32.927,0.23,-0.73,0.78,1.09
32.937,0.27,-0.87,1.08,1.42
32.947,0.39,-0.88,1.16,1.51
32.957,0.52,-0.80,0.88,1.30
32.968,0.65,-0.69,0.49,1.07
32.978,0.77,-0.57,0.16,0.97
32.988,0.96,-0.51,-0.00,1.09
32.998,1.18,-0.50,0.01,1.29
33.008,1.43,-0.52,0.03,1.52
33.018,1.60,-0.63,-0.03,1.72
33.028,1.72,-0.74,-0.04,1.87
33.038,1.81,-0.82,0.03,1.99
33.048,1.84,-0.98,0.21,2.10
33.058,1.86,-1.06,0.29,2.16
33.068,1.86,-0.98,0.21,2.12
33.078,1.58,-0.87,-0.34,1.84
33.088,0.85,-0.83,-1.33,1.78
33.098,0.36,-0.69,-1.88,2.04
33.109,0.50,-0.33,-1.58,1.69
33.119,1.20,0.22,-0.74,1.43
33.129,1.94,0.88,-0.18,2.14
33.139,2.42,1.38,-0.07,2.78
33.149,2.87,1.63,-0.18,3.31
33.159,3.39,1.84,-0.18,3.86
33.169,3.75,1.93,-0.18,4.22
33.179,3.75,1.87,-0.46,4.21
33.189,3.31,1.70,-0.97,3.85
33.199,3.02,1.41,-1.45,3.64
33.209,2.97,1.24,-1.62,3.60
33.219,3.12,1.05,-1.50,3.62
33.230,3.20,0.73,-1.39,3.56
33.240,3.32,0.54,-1.14,3.55
33.250,3.43,0.39,-0.83,3.55
33.260,3.18,0.14,-0.42,3.21
33.270,2.68,-0.15,0.10,2.68
33.280,2.23,-0.40,0.61,2.35
33.290,1.78,-0.60,0.95,2.10
33.300,1.27,-0.90,1.18,1.95
33.310,0.86,-1.18,1.35,1.99
33.320,0.59,-1.33,1.38,2.00
33.330,0.63,-1.24,1.26,1.87
33.340,0.67,-1.08,0.97,1.60
33.351,0.69,-0.97,0.61,1.33
33.361,0.93,-0.71,0.27,1.20
33.371,1.33,-0.37,0.05,1.39
33.381,1.51,-0.11,-0.11,1.52
33.391,1.46,0.06,-0.29,1.49
33.401,1.43,0.17,-0.33,1.48
33.411,1.47,0.30,-0.21,1.52
33.421,1.47,0.41,0.00,1.53
33.431,1.37,0.49,0.15,1.46
33.441,1.19,0.45,0.28,1.30
33.451,1.03,0.33,0.47,1.18
33.461,0.89,0.16,0.81,1.21
33.472,0.79,0.01,1.16,1.40
33.481,0.61,-0.14,1.35,1.49
33.492,0.41,-0.26,1.38,1.47
33.502,0.22,-0.37,1.34,1.41
33.512,0.02,-0.52,1.24,1.35
33.522,-0.17,-0.68,1.09,1.29
33.532,-0.27,-0.73,0.85,1.15
33.542,-0.28,-0.74,0.61,1.00
33.552,-0.13,-0.69,0.44,0.83
33.562,0.00,-0.59,0.28,0.66
33.572,0.09,-0.50,0.10,0.52
33.582,0.20,-0.41,-0.05,0.46
33.592,0.28,-0.28,-0.21,0.45
33.602,0.39,-0.18,-0.33,0.54
33.613,0.47,-0.08,-0.38,0.61
33.623,0.56,0.08,-0.45,0.72
33.633,0.63,0.19,-0.52,0.84
33.643,0.63,0.27,-0.63,0.93
33.653,0.65,0.38,-0.72,1.04
33.663,0.67,0.50,-0.64,1.05
33.673,0.58,0.54,-0.45,0.91
33.683,0.50,0.46,-0.23,0.72
33.693,0.24,0.36,-0.09,0.45
33.703,-0.05,0.21,0.08,0.23
33.713,-0.35,-0.05,0.18,0.39
33.723,-0.69,-0.26,0.29,0.80
33.733,-1.01,-0.49,0.39,1.19
33.743,-1.26,-0.62,0.46,1.48
33.754,-1.45,-0.69,0.60,1.71
33.764,-1.53,-0.72,0.68,1.82
33.774,-1.51,-0.64,0.65,1.77
33.784,-1.43,-0.52,0.58,1.62
33.794,-1.27,-0.35,0.53,1.42
33.804,-1.27,-0.27,0.35,1.35
33.814,-1.37,-0.27,0.07,1.40
33.824,-1.46,-0.21,-0.16,1.49
33.834,-1.50,-0.17,-0.31,1.54
33.844,-1.44,-0.12,-0.36,1.49
33.855,-1.31,0.05,-0.29,1.34
33.864,-1.04,0.19,-0.21,1.07
33.875,-0.87,0.29,-0.16,0.93
33.885,-0.72,0.32,-0.14,0.80
33.895,-0.60,0.27,-0.13,0.67
33.905,-0.56,0.19,-0.14,0.61
33.915,-0.63,0.09,-0.11,0.65
33.925,-0.78,0.01,0.05,0.78
33.935,-1.03,0.02,0.28,1.07
33.945,-1.19,0.07,0.51,1.30
33.955,-1.31,0.20,0.42,1.39
33.965,-1.53,0.49,-0.03,1.61
33.975,-1.90,0.82,-0.70,2.18
33.985,-2.04,1.11,-1.20,2.61
33.996,-2.04,1.45,-1.40,2.87
34.006,-1.80,1.76,-1.33,2.85
34.016,-1.40,2.02,-1.29,2.78
34.026,-1.17,2.22,-1.40,2.88
34.036,-1.11,2.19,-1.50,2.87
34.046,-1.07,1.98,-1.44,2.67
34.056,-1.02,1.78,-1.37,2.46
34.066,-1.08,1.65,-1.44,2.44
34.076,-1.36,1.44,-1.65,2.58
34.086,-1.72,1.16,-1.86,2.79
34.096,-1.91,0.85,-1.81,2.76
34.106,-1.94,0.47,-1.49,2.49
34.117,-1.91,0.02,-1.02,2.16
34.126,-1.95,-0.47,-0.53,2.08
34.137,-1.95,-0.86,-0.06,2.13
34.147,-2.06,-1.13,0.24,2.36
34.157,-2.23,-1.27,0.30,2.58
34.167,-2.51,-1.28,0.25,2.83
34.177,-2.70,-1.21,0.10,2.96
34.187,-2.66,-1.07,0.14,2.88
34.197,-2.56,-0.90,0.38,2.74
34.207,-2.40,-0.76,0.76,2.63
34.217,-2.13,-0.60,1.04,2.45
34.227,-1.78,-0.41,1.15,2.16
34.238,-1.42,-0.19,1.10,1.81
34.247,-1.02,-0.04,1.03,1.45
34.258,-0.75,0.10,0.92,1.19
34.268,-0.63,0.13,0.78,1.01
34.278,-0.70,0.11,0.63,0.95
34.288,-0.95,0.00,0.60,1.12
34.298,-1.06,-0.15,0.74,1.30
34.308,-1.00,-0.26,0.97,1.41
34.318,-0.79,-0.32,1.18,1.46
34.328,-0.57,-0.25,1.19,1.34
34.338,-0.56,-0.20,1.08,1.23
34.348,-0.52,-0.34,0.95,1.14
34.358,-0.43,-0.48,0.92,1.13
34.368,-0.34,-0.56,0.89,1.10
34.379,-0.34,-0.65,0.71,1.02
34.388,-0.36,-0.74,0.37,0.90
34.399,-0.56,-0.86,0.03,1.03
34.409,-0.78,-1.02,-0.20,1.30
34.419,-0.85,-1.18,-0.30,1.48
34.429,-0.95,-1.16,-0.26,1.52
34.439,-1.06,-1.08,-0.15,1.52
34.449,-0.96,-0.98,0.06,1.37
34.459,-0.91,-0.79,0.18,1.22
34.469,-0.78,-0.63,0.07,1.00
34.479,-0.57,-0.45,-0.17,0.74
34.489,-0.39,-0.23,-0.49,0.67
34.499,-0.14,0.06,-0.73,0.75
34.509,0.10,0.19,-0.88,0.91
34.520,0.31,0.22,-0.84,0.93
34.530,0.54,0.30,-0.67,0.91
34.540,0.73,0.31,-0.44,0.91
34.550,0.88,0.28,-0.26,0.96
34.560,0.93,0.35,-0.09,1.00
34.570,1.07,0.42,0.00,1.15
34.580,1.27,0.50,0.07,1.37
34.590,1.44,0.61,0.16,1.57
34.600,1.56,0.71,0.23,1.72
34.610,1.61,0.74,0.27,1.79
34.620,1.55,0.79,0.34,1.77
34.630,1.38,0.71,0.38,1.60
34.641,1.16,0.59,0.49,1.39
34.651,1.01,0.40,0.70,1.30
34.661,0.88,0.12,0.78,1.19
34.671,0.86,-0.08,0.77,1.15
34.681,0.90,-0.23,0.65,1.13
34.691,0.90,-0.35,0.45,1.06
34.701,0.92,-0.38,0.09,1.00
34.711,0.91,-0.37,-0.33,1.03
34.721,0.93,-0.34,-0.53,1.13
34.731,1.21,-0.26,-0.37,1.29
34.741,1.47,-0.19,-0.07,1.48
34.751,1.63,-0.07,0.16,1.64
34.762,1.74,-0.05,0.28,1.76
34.772,1.83,-0.06,0.51,1.90
34.782,2.02,0.06,0.56,2.10
34.792,2.26,0.21,0.28,2.28
34.802,2.53,0.38,-0.29,2.57
34.812,2.69,0.50,-0.80,2.85
34.822,2.69,0.50,-1.14,2.96
34.832,2.77,0.56,-1.25,3.09
34.842,2.82,0.52,-1.26,3.13
34.852,2.57,0.51,-1.14,2.86
34.862,2.31,0.31,-0.99,2.53
34.872,1.85,-0.25,-0.98,2.11
34.882,2.38,0.68,-0.88,2.62
34.892,2.52,0.86,-0.78,2.78
34.903,2.18,0.32,-0.91,2.38
34.913,1.81,0.21,-1.03,2.09
34.923,1.75,0.42,-1.16,2.14
34.933,1.71,0.56,-1.21,2.17
34.943,1.63,0.40,-0.90,1.91
34.953,1.75,0.24,-0.26,1.78
34.963,1.92,0.16,0.22,1.94
34.973,1.90,0.04,0.21,1.91
34.983,1.88,-0.12,-0.00,1.89
34.993,1.97,-0.19,-0.34,2.01
35.003,1.94,-0.26,-0.63,2.05
35.013,2.01,-0.24,-0.91,2.22
35.024,2.03,-0.19,-1.21,2.37
35.034,1.92,-0.17,-1.49,2.43
35.044,1.79,-0.19,-1.52,2.36
35.054,1.78,-0.13,-1.19,2.14
35.064,1.91,-0.06,-0.67,2.03
35.074,1.96,-0.16,-0.21,1.97
35.084,1.81,-0.29,0.19,1.85
35.094,1.62,-0.39,0.44,1.73
35.104,1.50,-0.44,0.60,1.67
35.114,1.31,-0.36,0.66,1.51
35.124,1.10,-0.38,0.58,1.30
35.134,0.99,-0.46,0.51,1.20
35.145,0.96,-0.39,0.45,1.13
35.155,1.15,-0.29,0.35,1.23
35.165,1.22,-0.11,0.28,1.25
35.175,1.27,0.14,0.26,1.30
35.185,1.26,0.24,0.38,1.33
35.195,1.01,0.14,0.60,1.18
35.205,0.65,-0.10,0.80,1.04
35.215,0.26,-0.34,0.97,1.06
35.225,-0.08,-0.52,1.11,1.23
35.235,-0.19,-0.69,1.20,1.39
35.245,-0.17,-0.75,1.14,1.38
35.255,-0.18,-0.74,0.77,1.08
35.265,-0.19,-0.72,0.30,0.80
35.275,-0.10,-0.71,-0.03,0.71
35.286,0.11,-0.60,-0.16,0.63
35.296,0.24,-0.54,-0.17,0.62
35.306,0.24,-0.57,-0.10,0.63
35.316,0.19,-0.67,0.08,0.70
35.326,0.08,-0.73,0.32,0.81
35.336,0.03,-0.69,0.44,0.82
35.346,-0.02,-0.56,0.36,0.67
35.356,-0.04,-0.38,0.06,0.39
35.366,0.00,-0.16,-0.29,0.33
35.376,0.13,0.09,-0.55,0.57
35.386,0.17,0.29,-0.77,0.85
35.396,0.25,0.47,-0.83,0.98
35.407,0.40,0.55,-0.65,0.93
35.417,0.35,0.44,-0.44,0.72
35.427,0.19,0.19,-0.12,0.30
35.437,0.04,-0.00,0.18,0.19
35.447,-0.16,-0.10,0.25,0.31
35.457,-0.39,-0.23,0.13,0.47
35.467,-0.55,-0.35,-0.11,0.67
35.477,-0.79,-0.46,-0.38,0.99
35.487,-0.93,-0.53,-0.53,1.20
35.497,-1.11,-0.60,-0.70,1.44
35.507,-1.27,-0.57,-0.70,1.56
35.517,-1.25,-0.54,-0.52,1.45
35.528,-1.20,-0.51,-0.19,1.32
35.537,-1.28,-0.54,0.12,1.40
35.548,-1.35,-0.65,0.46,1.57
35.558,-1.43,-0.61,0.65,1.68
35.568,-1.50,-0.55,0.64,1.72
35.578,-1.39,-0.42,0.51,1.54
35.588,-1.29,-0.22,0.35,1.35
35.598,-1.26,-0.06,0.17,1.27
35.608,-1.24,0.07,0.10,1.25
35.618,-1.20,0.27,0.29,1.27
35.628,-1.09,0.48,0.68,1.37
35.638,-0.85,0.69,1.06,1.52
35.649,-0.75,0.82,1.29,1.70
35.658,-0.91,0.91,1.37,1.88
35.668,-1.11,0.98,1.46,2.08
35.679,-1.26,1.13,1.51,2.27
35.689,-1.34,1.37,1.46,2.41
35.699,-1.26,1.60,1.42,2.48
35.709,-1.22,1.79,1.16,2.46
35.719,-1.01,1.93,0.81,2.33
35.729,-0.69,2.05,0.32,2.19
35.739,-0.48,2.13,-0.26,2.19
35.749,-0.47,2.05,-0.75,2.24
35.759,-0.60,1.93,-1.04,2.27
35.769,-0.86,1.88,-1.22,2.40
35.779,-1.06,1.73,-1.12,2.31
35.790,-1.25,1.46,-0.52,1.99
35.799,-1.39,1.17,0.23,1.83
35.810,-1.46,0.85,0.64,1.81
35.820,-1.27,0.56,0.74,1.57
35.830,-0.85,0.48,0.70,1.20
35.840,-0.58,0.16,0.54,0.81
35.850,-0.56,-0.16,0.39,0.70
35.860,-0.58,-0.38,0.10,0.71
35.870,-0.89,-0.73,-0.39,1.22
35.880,-1.42,-0.97,-0.92,1.95
35.890,-1.93,-1.14,-1.35,2.62
35.900,-2.33,-1.38,-1.60,3.14
35.911,-2.49,-1.54,-1.49,3.29
35.920,-2.55,-1.60,-1.09,3.20
35.931,-2.51,-1.53,-0.71,3.02
35.941,-2.36,-1.33,-0.50,2.75
35.951,-2.12,-1.10,-0.34,2.41
35.961,-1.89,-0.85,-0.26,2.09
35.971,-1.65,-0.65,-0.21,1.78
35.981,-1.41,-0.47,-0.19,1.50
35.991,-1.27,-0.23,-0.13,1.29
36.001,-1.25,-0.02,-0.17,1.26
36.011,-1.37,0.04,-0.16,1.38
36.021,-1.39,0.03,0.01,1.39
36.032,-1.36,0.04,0.23,1.38
36.041,-1.28,0.10,0.42,1.35
36.052,-1.18,0.11,0.53,1.30
36.062,-1.09,0.16,0.64,1.28
36.072,-1.07,0.17,0.72,1.30
36.082,-1.05,0.08,0.86,1.36
36.092,-0.97,0.02,0.98,1.38
36.102,-0.92,-0.01,1.03,1.38
36.114,-0.95,-0.01,0.92,1.32
36.122,-0.99,0.06,0.61,1.17
36.132,-1.01,0.13,0.28,1.05
36.142,-0.94,0.23,0.05,0.97
36.152,-0.80,0.24,0.02,0.83
36.162,-0.60,0.25,0.11,0.66
36.173,-0.41,0.24,0.15,0.50
36.182,-0.16,0.17,0.26,0.35
36.193,-0.02,0.20,0.41,0.46
36.203,-0.00,0.25,0.41,0.48
36.213,-0.04,0.25,0.29,0.39
36.223,0.03,0.28,0.29,0.40
36.233,0.14,0.29,0.36,0.48
36.243,0.13,0.24,0.40,0.48
36.253,0.07,0.21,0.30,0.37
36.263,-0.10,0.07,0.15,0.19
36.273,-0.09,-0.03,0.19,0.21
36.283,0.16,0.09,0.41,0.45
36.294,0.47,0.23,0.63,0.82
36.303,0.72,0.27,0.69,1.03
36.314,0.81,0.31,0.60,1.05
36.324,0.80,0.20,0.44,0.93
36.334,0.72,0.07,0.39,0.82
36.344,0.62,-0.02,0.50,0.80
36.354,0.54,-0.09,0.68,0.87
36.364,0.49,-0.22,0.77,0.94
36.374,0.50,-0.31,0.79,0.99
36.384,0.48,-0.38,0.81,1.01
36.394,0.51,-0.50,0.79,1.06
36.404,0.79,-0.57,0.74,1.22
36.414,1.09,-0.54,0.51,1.32
36.424,1.27,-0.53,0.10,1.38
36.435,1.31,-0.48,-0.42,1.45
36.445,1.33,-0.44,-0.80,1.61
36.455,1.34,-0.45,-1.03,1.75
36.465,1.36,-0.50,-1.00,1.76
36.475,1.46,-0.58,-0.81,1.77
36.485,1.50,-0.63,-0.56,1.73
36.495,1.48,-0.70,-0.43,1.69
36.505,1.47,-0.71,-0.40,1.68
36.515,1.55,-0.59,-0.47,1.72
36.525,1.53,-0.47,-0.59,1.70
36.535,1.35,-0.36,-0.68,1.55
36.545,1.05,-0.23,-0.75,1.32
36.555,0.89,-0.10,-0.56,1.06
36.566,0.90,0.14,-0.13,0.92
36.576,1.10,0.39,0.42,1.24
36.586,1.43,0.77,0.90,1.86
36.596,1.94,1.21,1.01,2.50
36.606,2.28,1.53,0.53,2.80
36.616,2.39,1.67,-0.32,2.93
36.626,2.53,1.78,-1.17,3.30
36.636,2.68,1.76,-1.69,3.62
36.646,2.78,1.59,-2.06,3.81
36.656,2.83,1.35,-2.30,3.88
36.666,2.77,1.00,-2.42,3.81
36.677,2.65,0.68,-2.28,3.56
36.686,2.64,0.51,-1.80,3.24
36.697,2.57,0.35,-1.28,2.89
36.707,2.14,0.13,-0.74,2.27
36.717,1.72,-0.03,-0.17,1.73
36.727,1.50,-0.12,0.30,1.53
36.737,1.21,-0.17,0.64,1.38
36.747,0.93,-0.29,0.89,1.31
36.757,0.78,-0.40,0.96,1.30
36.767,0.74,-0.42,0.95,1.27
36.778,0.78,-0.39,0.78,1.17
36.787,0.78,-0.37,0.52,1.01
36.797,0.80,-0.46,0.27,0.96
36.807,0.87,-0.44,0.14,0.99
36.817,0.91,-0.34,-0.01,0.97
36.828,0.82,-0.24,-0.26,0.90
36.838,0.71,-0.20,-0.48,0.88
36.848,0.75,-0.07,-0.61,0.96
36.858,0.81,0.02,-0.61,1.01
36.868,0.90,0.09,-0.57,1.06
36.878,0.98,0.13,-0.43,1.08
36.888,1.11,0.16,-0.22,1.14
36.898,1.16,0.18,-0.07,1.18
36.908,1.14,0.10,-0.03,1.15
36.918,1.12,0.01,-0.02,1.12
36.928,0.98,-0.09,-0.00,0.99
36.939,0.86,-0.17,-0.06,0.88
36.949,0.74,-0.22,-0.14,0.78
36.959,0.61,-0.25,-0.24,0.71
36.969,0.48,-0.22,-0.33,0.62
36.979,0.44,-0.32,-0.35,0.64
36.989,0.36,-0.34,-0.30,0.58
36.999,0.37,-0.34,-0.12,0.51
37.009,0.37,-0.36,0.06,0.52
37.019,0.25,-0.42,0.19,0.52
37.029,0.08,-0.46,0.23,0.52
37.039,-0.01,-0.50,0.18,0.53
37.049,-0.08,-0.51,0.09,0.52
37.059,-0.14,-0.52,0.02,0.54
37.069,-0.01,-0.45,-0.08,0.46
37.080,0.04,-0.32,-0.28,0.43
37.090,0.25,-0.19,-0.57,0.65
37.100,0.37,-0.05,-0.72,0.81
37.110,0.47,0.02,-0.69,0.84
37.120,0.50,0.03,-0.58,0.77
37.130,0.25,-0.07,-0.46,0.53
37.140,-0.06,-0.30,-0.25,0.40
37.150,-0.37,-0.53,-0.02,0.65
37.160,-0.61,-0.68,0.16,0.93
37.170,-0.77,-0.70,0.15,1.06
37.180,-0.90,-0.71,-0.01,1.14
37.190,-1.01,-0.74,-0.11,1.26
37.201,-1.14,-0.70,0.06,1.34
37.211,-1.12,-0.69,0.29,1.35
37.221,-1.13,-0.67,0.45,1.39
37.231,-1.20,-0.66,0.56,1.49
37.241,-1.32,-0.73,0.60,1.62
37.251,-1.43,-0.74,0.56,1.71
37.261,-1.49,-0.73,0.35,1.69
37.271,-1.59,-0.66,-0.13,1.73
37.281,-1.67,-0.63,-0.61,1.89
37.291,-1.55,-0.46,-0.85,1.83
37.301,-1.28,-0.25,-0.83,1.55
37.311,-1.15,-0.19,-0.69,1.36
37.322,-1.19,-0.19,-0.51,1.31
37.331,-1.16,-0.21,-0.33,1.22
37.342,-1.27,-0.15,-0.07,1.28
37.352,-1.55,-0.05,0.10,1.56
37.362,-1.84,0.11,0.19,1.85
37.372,-2.00,0.35,0.36,2.06
37.382,-1.92,0.59,0.61,2.10
37.392,-1.66,0.93,0.75,2.04
37.402,-1.45,1.28,0.55,2.01
37.412,-1.10,1.62,0.10,1.96
37.422,-0.78,1.77,-0.35,1.97
37.432,-0.63,1.76,-0.72,2.01
37.442,-0.59,1.65,-1.06,2.05
37.452,-0.70,1.48,-1.44,2.18
37.463,-0.81,1.32,-1.79,2.37
37.473,-0.95,1.16,-1.97,2.48
37.483,-1.22,0.93,-1.89,2.43
37.493,-1.53,0.67,-1.56,2.29
37.503,-1.92,0.38,-1.18,2.28
37.513,-2.30,0.15,-0.86,2.46
37.523,-2.41,0.09,-0.62,2.49
37.533,-2.51,0.22,-0.55,2.58
37.543,-2.59,0.29,-0.56,2.66
37.553,-2.61,0.32,-0.49,2.68
37.563,-2.49,0.39,-0.23,2.54
37.573,-2.26,0.50,0.29,2.33
37.584,-2.06,0.62,0.73,2.27
37.594,-1.91,0.69,0.98,2.25
37.604,-1.82,0.74,1.06,2.24
37.614,-1.80,0.76,1.09,2.24
37.624,-1.79,0.81,1.11,2.26
37.634,-1.71,0.83,1.13,2.21
37.644,-1.55,0.81,1.14,2.09
37.654,-1.41,0.76,1.10,1.94
37.664,-1.16,0.79,1.03,1.74
37.674,-0.98,0.75,0.96,1.57
37.684,-0.99,0.61,0.90,1.47
37.694,-1.19,0.39,0.79,1.48
37.705,-1.45,0.16,0.81,1.66
37.714,-1.55,0.05,1.08,1.89
37.725,-1.43,-0.03,1.49,2.07
37.735,-1.36,-0.21,1.76,2.23
37.745,-1.49,-0.43,1.83,2.40
37.755,-1.54,-0.61,1.82,2.46
37.765,-1.50,-0.70,1.73,2.39
37.775,-1.42,-0.69,1.50,2.18
37.785,-1.31,-0.69,1.11,1.85
37.795,-1.23,-0.76,0.65,1.59
37.805,-1.12,-0.87,0.25,1.44
37.815,-1.04,-0.94,-0.06,1.40
37.826,-1.02,-0.98,-0.31,1.45
37.835,-1.07,-1.03,-0.40,1.54
37.846,-1.17,-0.94,-0.30,1.53
37.856,-1.26,-0.72,-0.07,1.45
37.866,-1.25,-0.45,0.02,1.33
37.876,-1.24,-0.08,-0.12,1.25
37.886,-1.15,0.23,-0.43,1.25
37.896,-1.00,0.48,-0.75,1.34
37.906,-0.85,0.82,-0.98,1.54
37.916,-0.61,1.10,-1.17,1.72
37.926,-0.30,1.23,-1.29,1.81
37.936,-0.00,1.26,-1.20,1.74
37.946,0.21,1.17,-1.02,1.56
37.956,0.33,0.93,-0.79,1.27
37.967,0.37,0.68,-0.52,0.93
37.977,0.36,0.40,-0.13,0.55
37.987,0.35,0.13,0.31,0.49
37.997,0.39,-0.10,0.69,0.80
38.007,0.42,-0.26,0.97,1.09
38.017,0.50,-0.36,1.07,1.24
38.027,0.65,-0.37,1.02,1.26
38.037,0.83,-0.33,0.84,1.23
38.047,0.97,-0.24,0.52,1.13
38.057,1.22,-0.15,0.22,1.25
38.067,1.50,-0.08,0.04,1.50
38.077,1.62,-0.09,-0.07,1.62
38.088,1.69,-0.20,-0.05,1.70
38.097,1.78,-0.26,0.13,1.80
38.108,1.83,-0.23,0.24,1.86
38.118,1.94,-0.14,0.21,1.96
38.128,1.93,-0.11,0.04,1.93
38.138,1.87,-0.10,-0.36,1.90
38.148,1.93,0.02,-0.75,2.07
38.158,1.91,0.05,-1.01,2.16
38.168,1.79,-0.05,-1.05,2.07
38.178,1.64,-0.18,-0.87,1.86
38.188,1.50,-0.40,-0.58,1.65
38.198,1.37,-0.56,-0.30,1.51
38.208,1.36,-0.61,-0.12,1.50
38.218,1.49,-0.60,0.00,1.60
38.229,1.52,-0.50,-0.06,1.60
38.239,1.43,-0.45,-0.40,1.55
38.249,1.17,-0.32,-0.82,1.46
38.259,1.03,-0.09,-1.01,1.44
38.269,1.05,0.12,-0.80,1.32
38.279,1.30,0.37,-0.26,1.37
38.289,1.76,0.69,0.39,1.93
38.299,2.34,1.05,0.87,2.71
38.309,2.97,1.44,1.04,3.46
38.319,3.33,1.81,0.81,3.88
38.329,3.43,1.84,0.35,3.91
38.339,3.41,1.76,-0.19,3.84
38.350,3.42,1.71,-0.77,3.90
38.359,3.34,1.58,-1.39,3.95
38.370,3.13,1.46,-1.90,3.94
38.380,2.90,1.30,-2.22,3.87
38.390,2.70,1.15,-2.24,3.69
38.400,2.46,1.02,-1.99,3.33
38.410,2.32,0.91,-1.42,2.87
38.420,2.40,0.83,-0.61,2.61
38.430,2.59,0.70,0.20,2.69
38.440,2.79,0.55,0.88,2.98
38.450,2.82,0.35,1.28,3.12
38.460,2.66,0.11,1.29,2.96
38.471,2.38,-0.24,1.04,2.61
38.480,2.04,-0.48,0.73,2.22
38.491,1.71,-0.65,0.42,1.88
38.501,1.49,-0.79,0.21,1.70
38.511,1.39,-0.85,0.11,1.63
38.521,1.37,-0.79,0.13,1.59
38.531,1.34,-0.78,0.18,1.56
38.541,1.33,-0.80,0.28,1.57
38.551,1.34,-0.83,0.45,1.64
38.561,1.37,-0.84,0.62,1.73
38.571,1.44,-0.82,0.70,1.80
38.581,1.43,-0.70,0.64,1.72
38.591,1.29,-0.63,0.40,1.49
38.601,1.14,-0.67,0.17,1.33
38.612,1.09,-0.69,0.05,1.29
38.622,1.04,-0.68,-0.06,1.25
38.632,1.03,-0.67,-0.18,1.24
38.642,1.07,-0.65,-0.28,1.28
38.652,1.20,-0.56,-0.35,1.37
38.662,1.28,-0.47,-0.35,1.40
38.672,1.37,-0.47,-0.32,1.48
38.682,1.32,-0.45,-0.38,1.44
38.692,1.23,-0.46,-0.43,1.38
38.702,1.19,-0.43,-0.51,1.37
38.712,1.02,-0.39,-0.56,1.23
38.722,0.83,-0.41,-0.54,1.07
38.733,0.69,-0.43,-0.47,0.94
38.743,0.54,-0.45,-0.39,0.80
38.753,0.44,-0.43,-0.37,0.72
38.763,0.43,-0.30,-0.42,0.67
38.773,0.35,-0.14,-0.52,0.64
38.783,0.27,0.03,-0.66,0.71
38.793,0.17,0.14,-0.75,0.79
38.803,0.15,0.24,-0.68,0.74
38.813,0.17,0.32,-0.51,0.63
38.823,0.10,0.39,-0.39,0.56
38.833,0.05,0.40,-0.26,0.48
38.843,-0.02,0.37,-0.18,0.42
38.854,-0.17,0.32,-0.17,0.40
38.863,-0.45,0.22,-0.23,0.55
38.874,-0.73,0.09,-0.30,0.80
38.884,-0.96,-0.06,-0.35,1.02
38.894,-1.08,-0.17,-0.30,1.13
38.904,-1.17,-0.26,-0.19,1.21
38.914,-1.27,-0.34,0.08,1.32
38.924,-1.39,-0.36,0.33,1.48
38.934,-1.42,-0.35,0.65,1.60
38.944,-1.43,-0.34,0.98,1.76
38.954,-1.42,-0.32,1.33,1.97
38.964,-1.41,-0.39,1.55,2.13
38.974,-1.34,-0.47,1.59,2.13
38.984,-1.30,-0.48,1.43,1.99
38.995,-1.30,-0.51,1.13,1.79
39.005,-1.28,-0.53,0.81,1.60
39.015,-1.27,-0.50,0.60,1.49
39.025,-1.22,-0.43,0.58,1.41
39.035,-1.09,-0.44,0.68,1.36
39.045,-0.99,-0.41,0.79,1.33
39.055,-1.09,-0.34,0.68,1.33
39.065,-1.28,-0.33,0.38,1.38
39.075,-1.55,-0.31,0.15,1.59
39.085,-1.68,-0.19,0.07,1.69
39.095,-1.65,0.04,0.02,1.65
39.105,-1.66,0.40,-0.12,1.71
39.116,-1.69,0.72,-0.36,1.87
39.125,-1.75,0.96,-0.54,2.07
39.136,-1.79,1.16,-0.54,2.21
39.146,-1.68,1.38,-0.20,2.18
39.156,-1.53,1.61,0.28,2.23
39.166,-1.54,1.73,0.44,2.36
39.176,-1.74,1.66,0.24,2.41
39.186,-1.92,1.57,0.21,2.49
39.196,-2.05,1.55,0.16,2.57
39.206,-2.07,1.65,-0.01,2.64
39.216,-1.89,1.84,-0.30,2.66
39.226,-1.78,2.00,-0.62,2.75
39.236,-1.66,2.04,-0.84,2.76
39.246,-1.56,1.96,-0.83,2.64
39.257,-1.52,1.76,-0.59,2.39
39.267,-1.48,1.43,-0.22,2.07
39.277,-1.47,1.13,0.11,1.86
39.287,-1.49,0.78,0.27,1.71
39.297,-1.56,0.44,0.16,1.63
39.308,-1.70,0.18,-0.10,1.71
39.317,-1.86,0.06,-0.35,1.89
39.327,-1.91,0.01,-0.45,1.97
39.337,-1.90,0.03,-0.37,1.94
39.347,-1.81,0.15,-0.07,1.82
39.357,-1.60,0.12,0.28,1.63
39.367,-1.41,0.03,0.67,1.56
39.378,-1.20,-0.10,1.11,1.64
39.388,-0.99,-0.24,1.41,1.74
39.398,-0.86,-0.37,1.44,1.71
39.408,-0.98,-0.58,1.06,1.55
39.418,-1.36,-0.72,0.50,1.62
39.428,-1.56,-0.91,0.10,1.81
39.438,-1.71,-1.03,-0.01,1.99
39.448,-1.79,-1.00,0.06,2.05
39.458,-1.78,-0.97,0.21,2.04
39.468,-1.62,-0.91,0.52,1.93
39.478,-1.37,-0.86,0.86,1.83
39.488,-1.13,-0.75,1.08,1.73
39.498,-0.99,-0.65,1.06,1.58
39.508,-0.99,-0.63,0.86,1.45
39.519,-1.10,-0.66,0.57,1.40
39.529,-1.27,-0.63,0.31,1.45
39.539,-1.33,-0.59,0.16,1.46
39.549,-1.30,-0.52,0.05,1.40
39.559,-1.25,-0.45,0.03,1.33
39.569,-1.06,-0.37,0.13,1.13
39.579,-0.88,-0.29,0.23,0.96
39.589,-0.81,-0.28,0.27,0.90
39.599,-0.80,-0.22,0.30,0.89
39.609,-0.78,-0.14,0.37,0.88
39.619,-0.69,-0.07,0.55,0.89
39.629,-0.54,-0.07,0.79,0.96
39.640,-0.40,-0.06,0.95,1.03
39.650,-0.34,-0.04,0.93,0.99
39.660,-0.25,0.02,0.74,0.78
39.670,-0.20,0.11,0.46,0.51
39.680,-0.15,0.17,0.24,0.33
39.690,-0.12,0.25,0.13,0.30
39.700,-0.10,0.31,0.03,0.33
39.710,-0.06,0.39,-0.01,0.39
39.720,0.07,0.50,0.16,0.53
39.730,0.26,0.53,0.40,0.71
39.740,0.53,0.58,0.53,0.95
39.750,0.61,0.62,0.43,0.97
39.761,0.55,0.60,0.09,0.82
39.771,0.47,0.55,-0.22,0.76
39.781,0.53,0.53,-0.37,0.84
39.791,0.58,0.54,-0.44,0.91
39.801,0.56,0.48,-0.52,0.91
39.811,0.63,0.40,-0.49,0.89
39.821,0.86,0.36,-0.29,0.97
39.831,1.24,0.34,0.00,1.29
39.841,1.55,0.32,0.23,1.60
39.851,1.69,0.22,0.29,1.73
39.862,1.73,0.12,0.21,1.75
39.871,1.80,-0.02,0.12,1.80
39.881,1.80,-0.12,-0.05,1.80
39.891,1.72,-0.23,-0.26,1.76
39.902,1.60,-0.33,-0.51,1.71
39.912,1.55,-0.44,-0.68,1.75
39.922,1.60,-0.47,-0.74,1.82
39.932,1.75,-0.51,-0.71,1.95
39.942,1.86,-0.50,-0.75,2.07
39.952,1.84,-0.45,-1.06,2.17
39.962,1.56,-0.33,-1.46,2.16
39.972,1.31,-0.10,-1.70,2.15
39.982,1.09,0.12,-1.68,2.00
39.992,0.92,0.36,-1.44,1.75
40.002,0.93,0.64,-1.16,1.62
40.013,1.13,0.96,-0.87,1.72
40.023,1.49,1.33,-0.54,2.06
40.032,1.94,1.70,-0.37,2.60
40.043,2.40,1.96,-0.36,3.12
40.053,2.71,2.06,-0.55,3.44
40.063,2.77,2.18,-0.87,3.63
40.073,2.75,2.10,-1.23,3.67
40.083,2.57,1.77,-1.54,3.48
40.093,2.32,1.40,-1.61,3.15
40.103,2.16,0.98,-1.42,2.76
40.113,2.14,0.52,-1.08,2.45
40.124,2.11,0.22,-0.87,2.29
40.133,2.09,0.01,-0.82,2.25
40.144,2.01,-0.10,-0.86,2.19
40.154,1.86,-0.28,-0.77,2.04
40.164,1.78,-0.51,-0.47,1.91
40.174,1.78,-0.56,-0.14,1.87
40.184,1.71,-0.52,0.03,1.79
40.194,1.61,-0.51,0.04,1.69
40.204,1.54,-0.53,0.04,1.63
40.214,1.35,-0.53,0.04,1.45
40.224,1.20,-0.56,0.05,1.32
40.234,1.08,-0.62,0.13,1.25
40.244,0.94,-0.62,0.16,1.13
40.254,0.85,-0.63,0.05,1.06
40.265,0.87,-0.51,-0.20,1.03
40.275,0.98,-0.34,-0.40,1.11
40.285,1.10,-0.15,-0.43,1.19
40.295,1.29,0.03,-0.35,1.34
40.305,1.35,0.10,-0.16,1.36
40.315,1.21,0.02,0.02,1.21
40.325,0.99,-0.16,0.23,1.03
40.335,0.89,-0.31,0.48,1.06
40.345,0.71,-0.46,0.63,1.05
40.355,0.48,-0.61,0.59,0.97
40.366,0.36,-0.69,0.45,0.90
40.375,0.33,-0.79,0.20,0.88
40.386,0.43,-0.83,-0.01,0.93
40.396,0.47,-0.83,-0.29,1.00
40.406,0.52,-0.85,-0.62,1.17
40.416,0.54,-0.76,-0.79,1.22
40.426,0.60,-0.76,-0.86,1.29
40.436,0.65,-0.76,-0.79,1.27
40.446,0.60,-0.67,-0.57,1.06
40.456,0.44,-0.64,-0.31,0.84
40.466,0.30,-0.56,-0.01,0.63
40.476,0.28,-0.48,0.30,0.64
40.486,0.33,-0.32,0.51,0.69
40.496,0.40,-0.14,0.52,0.67
40.507,0.47,-0.01,0.32,0.57
40.516,0.54,0.09,0.03,0.54
40.527,0.72,0.24,-0.20,0.78
40.537,0.91,0.38,-0.44,1.08
40.547,0.97,0.40,-0.67,1.25
40.557,0.86,0.39,-0.99,1.37
40.567,0.63,0.33,-1.19,1.39
40.577,0.45,0.25,-1.12,1.23
40.587,0.28,0.06,-0.86,0.91
40.597,0.08,-0.15,-0.54,0.57
40.607,-0.25,-0.39,-0.30,0.55
40.617,-0.68,-0.60,-0.24,0.93
40.627,-1.01,-0.78,-0.20,1.29
40.637,-1.21,-0.86,-0.10,1.49
40.648,-1.33,-0.86,-0.04,1.58
40.658,-1.37,-0.78,-0.09,1.58
40.668,-1.39,-0.65,-0.13,1.54
40.678,-1.20,-0.50,-0.09,1.30
40.688,-1.00,-0.40,0.07,1.08
40.698,-0.80,-0.37,0.26,0.92
40.708,-0.64,-0.41,0.47,0.90
40.718,-0.67,-0.52,0.63,1.06
40.728,-0.77,-0.63,0.66,1.19
40.738,-0.86,-0.74,0.62,1.29
40.749,-0.86,-0.80,0.60,1.32
40.758,-0.84,-0.80,0.59,1.30
40.769,-0.83,-0.79,0.56,1.27
40.778,-0.88,-0.68,0.41,1.18
40.789,-1.04,-0.50,0.20,1.17
40.799,-1.19,-0.38,0.11,1.26
40.809,-1.30,-0.26,0.22,1.35
40.819,-1.34,-0.10,0.48,1.43
40.829,-1.40,0.09,0.57,1.51
40.839,-1.52,0.32,0.37,1.59
40.849,-1.57,0.59,0.02,1.68
40.859,-1.56,0.87,-0.22,1.80
40.869,-1.40,1.19,-0.27,1.86
40.879,-1.15,1.53,-0.15,1.92
40.890,-0.82,1.77,0.04,1.95
40.899,-0.51,1.86,0.19,1.94
40.910,-0.36,1.81,0.19,1.85
40.920,-0.47,1.61,-0.16,1.69
40.930,-0.90,1.44,-0.80,1.87
40.940,-1.37,1.34,-1.35,2.34
40.950,-1.65,1.37,-1.54,2.65
40.960,-1.68,1.51,-1.46,2.69
40.970,-1.40,1.53,-1.01,2.31
40.980,-0.95,1.49,-0.38,1.81
40.990,-0.73,1.34,0.14,1.53
41.000,-0.66,0.98,0.42,1.25
41.010,-0.79,0.59,0.47,1.09
41.020,-1.23,0.23,0.27,1.28
41.031,-1.79,-0.05,0.02,1.80
41.040,-2.29,-0.29,-0.10,2.31
41.051,-2.56,-0.39,-0.11,2.59
41.061,-2.57,-0.30,0.04,2.58
41.071,-2.33,-0.24,0.32,2.37
41.081,-2.00,-0.11,0.65,2.10
41.091,-1.73,0.03,0.98,1.99
41.101,-1.45,0.09,1.24,1.91
41.111,-1.26,0.07,1.41,1.89
41.121,-1.26,0.06,1.40,1.89
41.131,-1.37,0.10,1.16,1.80
41.141,-1.48,0.15,0.81,1.70
41.151,-1.61,0.18,0.41,1.67
41.161,-1.70,0.20,0.14,1.71
41.172,-1.73,0.16,0.04,1.74
41.182,-1.72,0.10,0.07,1.72
41.192,-1.59,-0.02,0.30,1.62
41.202,-1.45,-0.13,0.66,1.60
41.212,-1.33,-0.23,0.98,1.67
41.222,-1.30,-0.30,1.13,1.74
41.232,-1.36,-0.35,1.08,1.77
41.242,-1.56,-0.39,0.95,1.86
41.252,-1.75,-0.42,0.87,2.00
41.262,-1.82,-0.43,0.83,2.05
41.272,-1.81,-0.40,0.81,2.02
41.282,-1.68,-0.38,0.77,1.89
41.293,-1.39,-0.35,0.67,1.58
41.303,-1.06,-0.33,0.44,1.20
41.313,-0.84,-0.26,0.11,0.89
41.323,-0.76,-0.22,-0.18,0.82
41.333,-0.79,-0.25,-0.42,0.93
41.343,-0.89,-0.28,-0.50,1.05
41.353,-1.02,-0.32,-0.42,1.15
41.363,-1.06,-0.23,-0.16,1.10
41.374,-0.96,-0.11,0.17,0.98
41.383,-0.92,0.01,0.48,1.03
41.393,-0.82,0.11,0.76,1.12
41.403,-0.66,0.25,0.97,1.20
41.414,-0.50,0.32,1.03,1.19
41.423,-0.36,0.40,0.91,1.06
41.434,-0.28,0.55,0.56,0.83
41.444,-0.16,0.60,0.23,0.66
41.454,0.11,0.68,0.14,0.71
41.464,0.48,0.76,0.25,0.93
41.474,0.82,0.71,0.46,1.18
41.484,1.01,0.52,0.69,1.33
41.494,1.01,0.28,0.83,1.34
41.504,0.92,0.04,0.81,1.23
41.514,0.87,-0.12,0.66,1.10
41.524,0.81,-0.15,0.50,0.96
41.534,0.84,-0.12,0.30,0.90
41.544,0.94,-0.04,0.11,0.95
41.555,1.12,0.04,-0.03,1.12
41.565,1.38,0.07,-0.10,1.39
41.575,1.59,0.05,-0.06,1.60
41.585,1.92,0.10,-0.06,1.92
41.595,2.17,0.13,-0.24,2.18
41.605,2.23,0.12,-0.52,2.29
41.615,2.04,-0.11,-0.81,2.19
41.625,1.72,-0.42,-0.91,1.99
41.635,1.31,-0.78,-0.81,1.72
41.645,0.93,-1.07,-0.55,1.52
41.655,0.68,-1.24,-0.24,1.43
41.665,0.70,-1.28,0.13,1.46
41.676,0.91,-1.13,0.39,1.50
41.685,1.11,-0.89,0.42,1.49
41.696,1.26,-0.65,0.16,1.43
41.706,1.36,-0.34,-0.29,1.43
41.716,1.42,0.10,-0.83,1.65
41.726,1.40,0.54,-1.36,2.02
41.736,1.38,0.86,-1.74,2.38
41.746,1.61,1.14,-1.57,2.53
41.756,2.11,1.50,-0.94,2.76
41.766,2.79,1.81,-0.23,3.33
41.777,3.29,1.92,0.19,3.81
41.786,3.52,1.92,0.21,4.01
41.797,3.50,1.65,-0.04,3.87
41.807,3.40,1.41,-0.60,3.73
41.817,3.03,1.09,-1.39,3.50
41.827,2.57,0.75,-2.21,3.47
41.837,2.19,0.47,-2.68,3.49
41.847,2.00,0.26,-2.56,3.26
41.857,2.11,0.06,-1.83,2.80
41.867,2.43,-0.06,-0.90,2.59
41.877,2.61,-0.06,-0.32,2.63
41.887,2.46,-0.18,-0.04,2.46
41.897,2.13,-0.37,0.22,2.17
41.907,1.87,-0.56,0.54,2.02
41.917,1.73,-0.56,0.87,2.01
41.927,1.42,-0.63,0.98,1.83
41.938,1.14,-0.75,1.04,1.71
41.948,1.08,-0.75,1.11,1.72
41.958,1.27,-0.65,1.05,1.77
41.968,1.48,-0.52,0.78,1.76
41.978,1.55,-0.30,0.35,1.61
41.988,1.52,-0.14,-0.01,1.53
41.998,1.58,-0.02,-0.11,1.59
42.008,1.62,0.07,0.01,1.62
42.018,1.53,0.10,0.19,1.55
42.028,1.35,0.05,0.28,1.38
42.038,1.14,-0.04,0.35,1.20
42.048,0.94,-0.15,0.45,1.05
42.059,0.83,-0.26,0.61,1.07
42.069,0.90,-0.22,0.81,1.23
42.079,0.89,-0.17,0.88,1.27
42.089,0.88,-0.21,0.82,1.22
42.099,0.79,-0.28,0.72,1.10
42.109,0.76,-0.36,0.68,1.08
42.119,0.86,-0.36,0.71,1.17
42.129,0.92,-0.41,0.65,1.20
42.139,0.95,-0.47,0.49,1.17
42.149,1.03,-0.50,0.29,1.18
42.159,1.10,-0.51,0.15,1.23
42.169,1.11,-0.56,0.09,1.25
42.180,0.98,-0.59,-0.00,1.14
42.190,0.83,-0.57,-0.08,1.01
42.200,0.74,-0.51,-0.05,0.90
42.210,0.70,-0.46,-0.02,0.84
42.220,0.63,-0.40,0.04,0.75
42.230,0.57,-0.36,-0.01,0.67
42.240,0.51,-0.31,-0.09,0.60
42.250,0.47,-0.24,-0.11,0.54
42.260,0.44,-0.14,-0.09,0.47
42.270,0.32,-0.05,-0.20,0.38
42.280,0.12,0.03,-0.42,0.43
42.290,-0.10,0.04,-0.68,0.69
42.300,-0.38,0.07,-0.92,1.00
42.310,-0.63,0.03,-0.87,1.08
42.321,-0.78,-0.03,-0.62,0.99
42.331,-0.91,-0.08,-0.41,1.00
42.341,-0.91,-0.11,-0.22,0.94
42.351,-0.97,-0.19,-0.13,1.00
42.361,-1.15,-0.31,-0.19,1.20
42.371,-1.28,-0.43,-0.21,1.36
42.381,-1.26,-0.50,-0.12,1.36
42.391,-1.27,-0.55,-0.13,1.39
42.401,-1.35,-0.57,-0.17,1.47
42.411,-1.44,-0.65,-0.21,1.59
42.421,-1.45,-0.64,-0.15,1.59
42.431,-1.39,-0.58,-0.10,1.51
42.442,-1.36,-0.55,-0.09,1.47
42.452,-1.32,-0.53,-0.10,1.42
42.462,-1.27,-0.61,-0.14,1.42
42.472,-1.24,-0.70,-0.12,1.43
42.482,-1.22,-0.66,-0.07,1.39
42.492,-1.07,-0.56,0.03,1.20
42.502,-1.08,-0.40,0.11,1.15
42.512,-1.21,-0.16,0.12,1.23
42.522,-1.36,0.11,0.16,1.37
42.532,-1.45,0.42,0.30,1.54
42.542,-1.46,0.76,0.57,1.74
42.552,-1.42,1.05,0.88,1.97
42.563,-1.37,1.34,0.92,2.12
42.573,-1.43,1.68,0.67,2.31
42.583,-1.45,2.03,0.33,2.52
42.593,-1.34,2.31,0.09,2.67
42.603,-1.10,2.53,-0.08,2.76
42.613,-0.84,2.70,-0.29,2.84
42.623,-0.57,2.68,-0.38,2.76
42.633,-0.40,2.44,-0.45,2.51
42.643,-0.49,2.07,-0.53,2.19
42.653,-0.78,1.56,-0.70,1.88
