timestamp,ax,ay,az
73.581,-1.45,-4.35,-8.43
73.591,-2.96,-5.16,-8.38
73.601,-3.34,-5.63,-7.69
73.611,-2.5,-5.93,-6.8
73.621,-0.31,-6.44,-5.62
73.631,2.76,-6.93,-3.51
73.641,5.61,-6.98,-0.48
73.651,7.84,-6.81,2.57
73.661,9.06,-6.6,4.94
73.671,9.34,-6.17,6.29
73.682,9.55,-5.46,6.73
73.692,10.02,-4.91,7.07
73.702,10.32,-4.22,7.5
73.712,10.1,-3.44,7.78
73.722,9.33,-2.98,7.5
73.732,8.03,-2.84,6.51
73.742,6.37,-2.84,4.89
73.752,4.77,-2.91,3.03
73.762,3.41,-2.96,1.52
73.772,2.55,-2.92,0.42
73.782,2.34,-2.7,-0.4
73.792,2.24,-2.54,-0.98
73.803,1.97,-2.44,-1.49
73.813,1.26,-2.15,-2.08
73.823,0.01,-1.64,-2.83
73.833,-1.36,-1.18,-4.03
73.843,-2.52,-1.06,-5.5
73.853,-3.53,-1.33,-6.93
73.863,-4.49,-1.72,-8.43
73.873,-5.54,-2.14,-10.17
73.883,-6.69,-2.81,-11.85
73.893,-7.8,-3.88,-13.08
73.903,-8.67,-5.14,-13.24
73.913,-8.79,-5.87,-12.11
73.923,-7.59,-5.51,-10.3
73.933,-4.68,-4.64,-8.6
73.944,-0.82,-3.84,-6.39
73.954,3.87,-2.98,-3.35
73.964,9.33,-1.96,0.68
73.974,14.11,-1.16,5.95
73.984,17.49,-0.95,10.57
73.994,19.4,-0.06,13.07
74.004,20.31,1.39,13.3
74.014,19.39,2.03,11.61
74.024,16.19,1.62,8.32
74.034,12.23,0.99,4.66
74.044,8.36,0.29,1.56
74.054,5.21,-0.35,-0.83
74.065,3.1,-0.63,-2.38
74.075,1.44,-0.58,-3.13
74.085,0.53,-0.12,-3.54
74.095,0.08,0.67,-3.57
74.105,-0.89,1.07,-3.01
74.115,-1.71,1.26,-2.44
74.125,-2.38,1.58,-1.79
74.135,-3.25,1.92,-1.13
74.145,-4.06,2.34,-0.62
74.155,-4.73,2.82,-0.2
74.165,-5.08,3.18,0.25
74.176,-5.26,3.78,0.8
74.185,-5.26,4.27,1.78
74.196,-5.33,4.81,2.88
74.206,-5.57,5.38,3.83
74.216,-5.74,5.82,4.86
74.226,-6.12,6.42,5.91
74.236,-6.77,6.99,6.79
74.246,-7.51,7.22,7.49
74.256,-8.11,7.18,8.07
74.266,-8.63,6.95,8.3
74.276,-8.9,6.42,7.93
74.286,-8.88,5.4,7.09
74.296,-8.92,4.4,6.12
74.306,-9.16,3.48,5.2
74.316,-9.34,2.68,4.12
74.327,-9.32,1.93,2.76
74.337,-9.16,1.03,1.4
74.347,-8.69,0.14,0.25
74.357,-7.7,-0.49,-0.5
74.367,-6.36,-0.87,-0.61
74.377,-5.01,-0.92,-0.45
74.387,-3.75,-0.8,-0.44
74.397,-2.77,-0.69,-0.76
74.407,-2.32,-0.68,-1.35
74.417,-2.38,-0.57,-2.14
74.427,-2.57,-0.38,-3.27
74.437,-2.39,-0.53,-4.6
74.447,-1.88,-0.9,-5.61
74.458,-1.28,-1.21,-5.89
74.468,-0.98,-1.44,-5.33
74.478,-1.1,-2.02,-4.12
74.488,-1.68,-2.28,-2.98
74.498,-1.79,-2.17,-2.79
74.508,-0.52,-2.64,-3.07
74.518,2.48,-2.56,-2.32
74.528,5.92,-1.77,-0.22
74.538,9.64,-1.4,2.36
74.548,13.27,-0.49,4.68
74.559,15.68,0.85,6.08
74.569,16.78,2.0,6.79
74.578,16.45,2.4,7.8
74.589,14.89,2.12,9.73
74.599,12.89,1.98,11.07
74.609,11.5,1.82,11.3
74.619,10.16,1.24,10.7
74.629,8.66,0.62,9.23
74.639,7.47,0.14,7.14
74.649,6.52,-0.03,4.75
74.659,5.59,-0.14,2.55
74.669,4.46,-0.4,0.82
74.679,3.2,-0.58,-0.76
74.689,2.01,-0.68,-2.19
74.699,0.97,-0.54,-3.55
74.71,0.05,-0.35,-4.74
74.72,-0.54,-0.23,-5.37
74.73,-1.1,0.14,-5.61
74.74,-1.65,0.45,-5.71
74.75,-2.17,0.43,-5.48
74.76,-2.62,0.24,-4.7
74.77,-3.12,0.02,-3.7
74.78,-3.7,-0.57,-3.03
74.79,-4.15,-1.26,-2.88
74.8,-4.62,-1.72,-3.0
74.81,-5.31,-2.21,-3.0
74.82,-5.85,-2.36,-2.87
74.83,-6.15,-2.6,-2.57
74.841,-6.13,-2.93,-1.81
74.851,-6.33,-3.02,-0.84
74.861,-6.95,-3.13,-0.08
74.871,-7.72,-3.4,0.38
74.881,-7.94,-3.67,0.75
74.891,-7.77,-3.65,1.12
74.901,-7.37,-3.69,1.45
74.911,-6.73,-3.72,1.53
74.921,-6.22,-3.74,1.39
74.931,-5.98,-3.84,1.07
74.941,-5.85,-3.97,0.51
74.951,-5.57,-4.04,0.02
74.962,-5.27,-3.99,-0.46
74.972,-5.11,-3.99,-1.19
74.982,-5.21,-3.82,-2.13
74.992,-5.49,-3.63,-3.16
75.002,-5.99,-3.37,-4.29
75.012,-6.28,-2.74,-5.7
75.022,-7.01,-1.57,-7.62
75.032,-8.27,-0.13,-10.22
75.042,-9.42,0.66,-12.16
75.052,-10.52,0.57,-12.16
75.062,-10.18,0.44,-10.57
75.072,-8.11,0.27,-8.03
75.082,-5.18,-0.17,-4.4
75.093,-1.67,-0.1,-0.63
75.103,2.13,0.71,2.64
75.113,5.41,1.38,5.74
75.123,9.04,2.17,8.03
75.133,13.78,3.21,9.39
75.143,18.11,3.48,11.56
75.153,21.09,1.93,14.49
75.163,24.29,-0.21,18.83
75.173,29.07,-1.14,24.77
75.183,34.96,-1.35,30.72
75.194,37.14,-1.86,31.01
75.204,32.76,-3.72,23.53
75.213,24.16,-6.6,12.02
75.223,15.35,-8.82,2.09
75.234,8.48,-10.11,-4.16
75.244,3.58,-10.74,-7.44
75.254,0.3,-10.68,-8.72
75.264,-1.72,-10.17,-8.52
75.274,-2.55,-9.89,-7.58
75.284,-2.62,-9.92,-6.58
75.294,-2.61,-10.01,-5.66
75.304,-2.77,-9.97,-5.04
75.314,-3.26,-9.87,-4.77
75.324,-3.92,-9.76,-4.87
75.334,-4.54,-9.53,-5.07
75.344,-5.15,-9.12,-5.17
75.354,-5.58,-8.59,-5.2
75.365,-5.5,-7.98,-5.08
75.375,-5.0,-7.22,-4.79
75.385,-4.32,-6.38,-4.29
75.395,-3.65,-5.69,-3.75
75.405,-2.87,-5.48,-3.34
75.415,-2.14,-5.54,-2.66
75.425,-1.48,-5.66,-1.39
75.435,-0.22,-5.47,-0.23
75.445,-0.12,-4.05,1.43
75.455,-1.3,-2.1,3.17
75.465,-1.04,-0.62,3.36
75.476,-0.21,0.57,2.84
75.486,-0.25,2.0,2.41
75.496,-1.45,3.22,2.29
75.506,-3.12,3.78,2.4
75.516,-4.68,4.14,2.82
75.526,-6.38,4.57,3.37
75.536,-8.2,4.91,3.7
75.547,-10.01,5.44,4.16
75.556,-11.35,6.31,4.76
75.566,-11.66,7.05,5.57
75.576,-10.83,7.82,8.59
75.586,-8.76,9.22,7.66
75.596,-5.93,9.98,8.01
75.606,-3.4,11.19,7.77
75.617,-0.63,12.34,7.96
75.627,2.02,13.2,8.81
75.637,4.26,13.48,9.86
75.647,5.94,13.36,10.74
75.657,7.21,12.74,11.35
75.667,8.04,11.69,11.33
75.677,8.06,10.28,10.87
75.687,7.14,8.62,10.07
75.697,6.2,6.82,9.09
75.707,5.72,4.81,8.19
75.717,4.54,3.14,7.14
75.728,3.81,1.29,4.67
75.737,3.27,-0.12,2.43
75.748,2.49,-1.22,0.59
75.758,1.69,-2.21,-0.99
75.768,0.88,-3.04,-2.26
75.778,-0.06,-3.71,-3.19
75.788,-1.21,-4.24,-3.58
75.798,-2.34,-4.72,-3.64
75.808,-3.61,-5.28,-3.85
75.818,-5.06,-5.83,-4.11
75.828,-6.56,-6.29,-4.25
75.838,-7.62,-6.64,-4.37
75.848,-7.88,-6.76,-4.37
75.858,-6.52,-6.52,-3.56
75.869,-4.29,-6.06,-4.75
75.879,-2.54,-6.13,-6.24
75.889,1.35,-6.1,-5.36
75.899,4.45,-5.83,-3.79
75.909,6.57,-5.82,-0.91
75.919,8.58,-5.71,2.32
75.929,9.93,-5.63,5.76
75.939,10.06,-5.83,8.64
75.949,9.59,-5.91,9.91
75.959,9.51,-5.63,9.32
75.969,9.33,-5.27,7.99
75.979,8.48,-5.08,6.69
75.989,7.89,-4.88,5.3
76.0,7.56,-4.77,3.93
76.01,6.8,-4.83,2.97
76.02,5.89,-4.95,2.01
76.03,5.02,-5.2,1.0
76.04,4.05,-5.28,0.2
76.05,3.21,-5.14,-0.65
76.06,2.51,-5.08,-1.56
76.07,1.69,-5.05,-1.92
76.08,0.82,-4.94,-1.82
76.09,-0.0,-4.74,-1.42
76.1,-0.57,-4.48,-0.89
76.11,-0.98,-4.39,-0.47
76.12,-1.65,-4.3,-0.0
76.131,-2.44,-3.82,-0.11
76.141,-3.26,-3.29,-0.75
76.151,-4.02,-2.81,-2.07
76.161,-5.11,-2.47,-4.48
76.171,-6.85,-2.9,-7.16
76.181,-8.34,-4.02,-9.42
76.191,-9.96,-5.0,-11.04
76.201,-12.64,-6.16,-12.36
76.211,-16.51,-7.86,-14.09
76.221,-19.48,-10.48,-15.31
76.231,-18.32,-13.0,-14.29
76.241,-12.77,-14.57,-11.16
76.251,-4.7,-15.44,-7.03
76.262,6.36,-15.36,-1.13
76.272,14.66,-13.63,2.51
76.282,22.22,-11.77,5.87
76.292,26.3,-10.11,6.17
76.302,26.92,-7.77,3.86
76.312,27.47,-4.79,1.66
76.322,29.18,-1.38,1.75
76.333,30.38,0.52,4.13
76.342,28.89,-0.77,6.07
76.352,24.11,-3.55,6.51
76.363,18.16,-5.44,4.94
76.372,13.7,-5.62,2.36
76.382,10.94,-4.79,-0.12
76.393,8.68,-3.75,-1.76
76.403,6.54,-3.16,-2.8
76.413,4.57,-2.8,-3.61
76.423,2.86,-2.33,-3.76
76.433,2.24,-2.08,-3.23
76.443,2.59,-1.9,-2.51
76.453,2.77,-1.57,-1.78
76.463,2.46,-1.29,-0.75
76.473,1.9,-1.05,0.14
76.483,1.13,-0.6,1.06
76.493,0.71,0.5,1.7
76.503,0.52,1.49,1.78
76.514,0.67,1.9,1.88
76.524,0.39,2.37,2.38
76.534,-0.45,3.12,3.37
76.544,-1.16,3.96,4.94
76.554,-1.84,4.95,6.52
76.564,-2.35,5.99,7.89
76.574,-2.73,6.72,9.47
76.584,-3.27,7.56,11.17
76.594,-3.91,8.6,12.95
76.604,-4.35,9.53,14.54
76.614,-5.31,10.12,16.0
76.624,-6.45,10.57,16.98
76.634,-7.02,10.91,17.47
76.645,-7.28,11.98,19.06
76.655,-7.9,11.17,19.5
76.665,-8.86,10.23,19.0
76.675,-10.1,9.84,18.09
76.685,-11.26,8.63,16.76
76.695,-11.95,6.78,15.24
76.705,-12.17,5.19,13.9
76.715,-12.18,4.06,12.72
76.725,-12.37,3.3,11.63
76.735,-12.73,2.92,10.65
76.745,-13.25,2.93,9.71
76.755,-14.03,3.61,8.77
76.765,-14.54,4.59,7.76
76.776,-14.06,5.37,6.71
76.786,-12.61,5.86,6.19
76.796,-10.06,6.09,6.91
76.806,-6.36,6.86,8.54
76.816,-0.94,8.43,10.34
76.826,5.41,10.77,11.62
76.836,10.73,12.92,11.78
76.846,13.52,13.21,10.45
76.856,13.34,11.58,8.77
76.866,12.3,9.38,9.21
76.877,12.63,7.06,13.2
76.887,13.57,5.09,15.64
76.897,13.21,4.13,15.19
76.906,15.05,3.01,15.55
76.917,14.94,0.33,13.43
76.927,14.26,-2.02,10.04
76.937,12.81,-4.01,6.23
76.947,10.82,-5.33,2.83
76.957,8.87,-6.12,0.07
76.967,7.02,-6.55,-2.08
76.977,5.39,-6.81,-3.47
76.987,3.99,-7.05,-3.92
76.997,2.79,-7.22,-3.55
77.007,1.67,-7.17,-2.72
77.017,0.42,-6.98,-1.76
77.028,-0.68,-6.95,-0.85
77.038,-1.61,-7.08,0.04
77.048,-2.43,-7.24,0.76
77.058,-2.96,-7.36,1.24
77.068,-3.01,-7.51,1.61
77.078,-2.62,-7.63,1.9
77.088,-2.12,-7.64,2.13
77.098,-1.67,-7.61,2.27
77.108,-1.18,-7.64,2.44
77.118,-0.64,-7.75,2.66
77.128,-0.09,-7.9,2.8
77.138,0.37,-8.17,2.89
77.148,0.66,-8.44,3.02
77.159,0.83,-8.65,3.14
77.169,0.85,-8.86,3.13
77.179,0.76,-9.11,3.14
77.189,0.65,-9.32,3.22
77.199,0.48,-9.46,3.32
77.209,0.33,-9.51,3.48
77.219,0.22,-9.48,3.81
77.229,0.08,-9.56,4.46
77.239,-0.14,-9.73,5.6
77.249,-0.38,-9.86,6.75
77.259,-0.87,-9.91,6.85
77.269,-1.22,-9.84,6.89
77.279,-1.07,-9.61,7.39
77.289,-0.94,-9.22,8.09
77.3,-1.42,-8.51,8.6
77.31,-2.95,-7.42,8.57
77.32,-4.82,-6.16,8.14
77.33,-6.04,-5.22,7.61
77.34,-5.74,-4.84,7.13
77.35,-3.56,-4.57,6.78
77.36,-0.67,-4.46,6.92
77.37,2.58,-4.69,7.27
77.38,5.44,-5.35,7.55
77.39,7.51,-6.28,7.84
77.4,9.55,-6.86,8.17
77.411,11.58,-6.89,8.42
77.421,13.96,-6.63,8.6
77.431,16.45,-6.69,8.49
77.441,18.9,-7.16,7.9
77.451,21.42,-7.58,7.1
77.461,23.4,-7.84,6.4
77.471,24.31,-7.79,5.92
77.481,23.52,-7.22,4.77
77.491,21.05,-6.01,2.81
77.501,17.55,-4.72,0.73
77.511,13.74,-3.69,-1.08
77.521,10.49,-2.54,-2.17
77.531,7.95,-1.3,-2.65
77.541,6.18,-0.17,-3.15
77.552,4.68,1.14,-3.92
77.562,2.71,2.06,-3.65
77.572,1.2,2.4,-2.51
77.582,0.41,2.74,-0.66
77.592,0.22,3.17,1.43
77.602,0.59,3.68,3.03
77.612,1.14,4.0,4.01
77.622,1.66,4.0,4.17
77.632,2.0,3.63,3.68
77.642,2.0,2.92,2.85
77.652,1.56,2.27,1.9
77.662,0.75,1.74,1.02
77.672,-0.16,1.25,0.18
77.683,-0.95,0.72,-0.56
77.693,-1.52,0.1,-1.27
77.703,-1.96,-0.56,-1.95
77.713,-2.41,-1.2,-2.47
77.723,-2.97,-1.81,-2.88
77.733,-3.58,-2.37,-3.27
77.743,-4.09,-2.94,-3.68
77.753,-4.49,-3.32,-4.24
77.763,-4.4,-3.08,-4.45
77.773,-3.89,-2.41,-4.23
77.783,-3.01,-1.74,-3.93
77.794,-1.7,-1.27,-3.52
77.804,-0.21,-0.64,-2.96
77.814,1.16,0.2,-2.5
77.824,1.88,0.63,-2.33
77.834,1.88,0.73,-2.43
77.844,1.26,0.93,-2.45
77.854,0.34,1.3,-2.29
77.864,0.43,2.14,-2.26
77.874,0.86,3.63,-1.43
77.884,1.09,5.27,0.46
77.894,1.57,7.44,2.94
77.904,4.11,10.99,6.07
77.914,9.14,15.37,10.08
77.925,15.2,18.54,15.26
77.935,20.61,19.7,19.38
77.945,23.36,18.72,20.31
77.955,21.84,15.57,16.87
77.965,16.89,12.01,10.47
77.975,12.33,8.47,4.05
77.985,8.25,4.92,-0.91
77.995,3.63,1.9,-5.06
78.005,0.89,0.23,-7.64
78.015,0.51,0.8,-7.59
78.025,2.15,2.53,-5.18
78.035,4.79,3.48,-2.43
78.045,7.21,3.24,0.93
78.055,6.84,1.55,5.29
78.066,4.27,-0.44,9.41
78.076,0.34,-2.04,11.41
78.086,-4.64,-3.04,10.84
78.096,-9.19,-2.87,9.02
78.106,-9.45,-1.72,7.77
78.116,-5.71,0.21,7.47
78.126,-2.16,2.01,7.36
78.136,-0.82,2.6,6.84
78.146,-1.02,1.91,5.59
78.156,-1.81,0.96,3.38
78.166,-2.57,0.23,1.14
78.176,-2.8,-0.38,-0.37
78.186,-2.6,-1.15,-0.88
78.197,-2.52,-2.02,-0.57
78.207,-2.29,-2.92,0.32
78.217,-1.66,-3.95,1.53
78.227,-0.75,-5.01,2.88
78.237,0.2,-6.11,4.33
78.247,0.87,-7.25,6.03
78.257,1.33,-8.36,7.55
78.267,1.49,-9.35,8.5
78.277,1.43,-10.31,8.9
78.287,1.13,-11.23,8.87
78.297,0.53,-11.95,8.55
78.307,-0.07,-12.19,8.25
78.317,-0.28,-12.04,8.01
78.328,-0.04,-11.59,7.71
78.338,0.47,-11.29,7.11
78.348,1.1,-11.21,6.55
78.358,1.82,-11.35,6.12
78.368,2.92,-11.76,5.73
78.378,3.93,-12.45,5.42
78.388,4.45,-13.42,5.05
78.398,4.56,-13.96,4.67
78.408,4.52,-13.85,4.19
78.418,4.36,-13.24,3.62
78.428,4.09,-12.3,2.96
78.438,4.06,-11.31,2.37
78.449,4.28,-10.63,1.99
78.459,4.55,-10.27,1.46
78.469,4.81,-9.93,0.46
78.479,4.88,-9.78,-1.01
78.489,4.48,-9.97,-2.55
78.499,3.86,-10.64,-3.84
78.509,3.51,-11.71,-5.0
78.519,3.88,-12.74,-5.94
78.529,4.35,-13.34,-6.57
78.539,4.48,-13.88,-6.87
78.549,4.82,-14.81,-6.75
78.559,5.07,-15.54,-6.46
