timestamp,ax,ay,az
397.769,-7.85,1.26,8.64
397.779,-8.64,0.65,7.94
397.789,-9.43,-0.16,7.12
397.8,-10.04,-0.29,6.83
397.81,-10.04,0.04,6.77
397.82,-9.22,0.62,7.0
397.83,-7.86,1.37,7.8
397.84,-6.66,2.07,8.94
397.85,-5.78,2.87,9.54
397.86,-5.31,3.85,9.61
397.87,-5.11,5.27,9.3
397.88,-4.28,6.99,9.44
397.89,-2.32,8.72,10.3
397.9,0.73,10.38,11.67
397.91,4.31,11.71,13.05
397.92,7.02,12.0,12.89
397.93,8.64,11.67,11.1
397.941,8.92,10.87,8.71
397.951,8.2,9.87,6.38
397.961,7.27,9.26,4.4
397.971,6.58,8.53,3.27
397.981,6.08,7.43,2.98
397.991,5.56,6.04,2.58
398.001,5.03,4.54,1.96
398.011,4.48,3.26,1.24
398.021,3.77,1.93,0.68
398.031,3.17,0.62,0.34
398.041,2.56,-0.63,-0.07
398.051,1.67,-1.57,-0.43
398.062,0.9,-2.03,-0.88
398.072,0.51,-2.17,-1.44
398.082,0.25,-2.53,-1.72
398.092,0.17,-2.25,-1.99
398.102,0.66,-2.29,-2.89
398.112,1.4,-2.42,-3.77
398.122,1.74,-2.21,-4.31
398.132,1.98,-1.88,-4.47
398.142,2.45,-1.79,-4.4
398.152,2.55,-2.07,-4.39
398.162,2.77,-2.47,-3.94
398.172,2.97,-2.79,-2.87
398.182,3.21,-3.46,0.09
398.193,4.33,-3.47,-1.47
398.203,4.72,-3.6,-1.91
398.213,4.48,-3.76,-2.03
398.223,4.72,-4.34,-2.39
398.233,4.22,-5.12,-2.7
398.243,4.06,-5.55,-2.86
398.253,5.08,-4.71,-3.26
398.263,5.38,-4.36,-3.97
398.273,4.61,-5.74,-4.77
398.283,3.33,-6.99,-5.54
398.293,1.92,-7.6,-6.02
398.304,0.94,-8.05,-6.25
398.313,0.83,-8.41,-6.24
398.324,1.55,-8.59,-5.87
398.334,3.07,-8.55,-5.4
398.344,5.2,-8.06,-5.12
398.354,7.41,-7.1,-4.58
398.364,9.16,-6.2,-3.83
398.374,10.27,-5.76,-3.3
398.384,10.77,-5.49,-2.9
398.394,10.97,-5.07,-2.48
398.404,10.97,-4.42,-2.09
398.414,11.79,-4.09,-0.37
398.424,9.84,-3.58,-1.27
398.434,8.56,-3.58,-1.66
398.444,7.78,-3.64,-1.45
398.455,7.0,-3.97,-1.51
398.465,6.51,-3.89,-1.19
398.475,6.02,-3.76,-1.07
398.485,5.63,-3.65,-0.98
398.495,5.42,-3.51,-0.88
398.505,5.32,-3.16,-0.89
398.515,5.27,-2.59,-0.81
398.525,4.98,-1.93,-0.53
398.535,4.51,-1.41,-0.57
398.545,4.16,-1.0,-0.9
398.555,4.03,-0.56,-1.16
398.566,4.07,-0.1,-1.12
398.576,4.47,0.53,-0.79
398.586,5.07,1.43,-0.2
398.596,6.12,2.5,0.4
398.606,7.35,3.77,0.85
398.616,7.81,4.95,1.08
398.626,7.36,6.01,0.72
398.636,6.45,7.03,0.12
398.646,5.79,8.09,-0.26
398.656,5.82,9.21,-0.61
398.666,6.83,10.17,-0.43
398.676,8.1,10.68,0.62
398.686,9.29,10.81,2.04
398.697,10.17,10.63,3.29
398.707,10.51,10.42,4.24
398.717,10.42,10.1,4.75
398.727,9.74,9.86,4.91
398.737,8.77,9.69,5.39
398.747,8.11,9.26,6.15
398.757,7.72,8.55,6.86
398.767,7.01,7.66,7.47
398.777,6.01,6.56,7.88
398.787,4.66,4.99,7.96
398.797,2.5,3.42,7.72
398.807,1.92,4.42,7.54
398.817,1.8,4.67,7.43
398.828,0.48,3.64,7.51
398.838,-1.39,3.24,7.37
398.848,-2.57,3.38,7.12
398.858,-3.27,3.5,7.33
398.868,-3.54,3.62,7.81
398.878,-3.55,3.39,8.33
398.888,-3.48,2.69,8.97
398.898,-3.45,1.92,9.55
398.908,-3.5,1.32,9.93
398.918,-3.77,0.8,10.04
398.928,-4.07,0.21,9.72
398.938,-4.58,-0.48,9.42
398.948,-4.94,-1.44,8.84
398.959,-5.09,-2.37,8.01
398.969,-5.13,-3.07,7.26
398.979,-5.11,-3.75,6.66
398.989,-4.85,-4.27,6.16
398.999,-4.42,-4.72,5.51
399.009,-4.04,-5.29,4.93
399.019,-3.9,-5.74,4.53
399.029,-4.11,-6.34,4.16
399.039,-4.74,-7.0,3.71
399.049,-5.48,-7.69,3.24
399.059,-6.18,-8.2,2.79
399.069,-6.82,-8.57,2.32
399.079,-7.16,-8.84,1.74
399.089,-6.99,-9.0,1.3
399.099,-6.49,-9.02,1.06
399.11,-5.89,-8.88,0.81
399.12,-4.94,-8.61,0.5
399.13,-3.85,-8.31,0.12
399.14,-3.24,-7.98,-0.22
399.15,-3.23,-7.93,-0.84
399.16,-2.71,-8.02,-1.25
399.17,-2.32,-8.28,-1.48
399.18,-2.71,-8.61,-1.54
399.19,-2.41,-8.56,-0.93
399.2,-2.34,-8.43,-0.48
399.211,-1.88,-8.39,-0.23
399.221,-1.29,-8.43,0.21
399.231,-0.68,-8.37,0.74
399.241,0.15,-8.04,1.33
399.251,0.53,-7.78,1.77
399.261,0.58,-7.74,1.85
399.271,0.76,-7.75,1.53
399.281,1.29,-6.21,0.98
399.291,2.04,-5.42,0.17
399.301,2.72,-5.72,-0.45
399.311,3.1,-5.65,-0.7
399.321,3.64,-5.54,-0.63
399.331,3.7,-5.34,-0.83
399.341,3.91,-4.72,-1.33
399.352,4.34,-4.32,-1.58
399.362,4.5,-4.1,-0.78
399.372,4.68,-3.59,0.31
399.382,4.46,-3.05,1.11
399.392,4.19,-2.64,1.1
399.402,3.95,-2.11,0.55
399.412,3.83,-1.19,0.29
399.422,4.24,0.2,0.76
399.432,5.88,2.0,1.67
399.442,7.94,3.89,2.68
399.452,9.4,6.19,3.59
399.462,11.05,8.52,4.14
399.473,12.25,10.03,6.86
399.483,13.3,11.73,9.6
399.493,14.22,14.27,11.45
399.503,15.83,16.67,13.15
399.513,17.37,18.02,13.38
399.523,17.82,18.23,11.9
399.533,16.91,17.19,9.32
399.543,15.26,15.26,6.4
399.553,13.6,13.01,3.75
399.563,11.9,10.83,1.91
399.573,10.45,8.8,0.69
399.583,9.43,6.8,0.0
399.593,8.72,4.75,-0.43
399.603,8.02,2.67,-0.8
399.614,7.2,0.72,-1.14
399.624,6.32,-1.09,-1.31
399.634,5.55,-2.66,-1.47
399.644,4.95,-3.9,-1.43
399.654,4.22,-4.87,-1.48
399.664,3.35,-5.55,-1.65
399.674,3.18,-5.58,-0.84
399.684,1.23,-8.12,-1.61
399.694,-1.03,-8.7,-2.63
399.704,-1.1,-7.58,-2.1
399.714,-1.96,-8.12,-1.65
399.724,-2.47,-8.53,-1.76
399.735,-2.39,-8.36,-1.89
399.745,-2.34,-8.32,-1.82
399.755,-2.23,-8.34,-1.8
399.765,-2.05,-8.22,-1.55
399.775,-1.91,-8.05,-1.2
399.785,-1.78,-7.89,-0.79
399.795,-1.84,-7.79,-0.29
399.805,-2.12,-7.87,0.23
399.815,-2.61,-8.07,0.54
399.825,-3.01,-8.31,0.59
399.835,-3.24,-8.44,0.58
399.845,-3.46,-8.51,0.48
399.856,-3.7,-8.46,0.32
399.866,-3.87,-8.24,0.17
399.876,-3.75,-8.03,0.09
399.886,-2.92,-7.82,0.52
399.896,-2.71,-7.15,-0.49
399.906,-2.56,-6.82,-0.72
399.916,-2.33,-6.52,-0.66
399.926,-2.29,-6.2,-0.73
399.936,-2.21,-5.85,-0.57
399.946,-2.22,-5.51,-0.48
399.957,-2.27,-5.12,-0.39
399.966,-1.92,-4.78,-0.18
399.976,-1.38,-4.48,0.23
399.987,-1.1,-4.16,0.82
399.997,-0.91,-3.96,0.98
400.007,-0.86,-4.35,0.75
400.017,-0.88,-4.58,0.48
400.027,-0.06,-3.54,0.46
400.037,1.17,-1.99,0.86
400.047,0.8,-2.52,1.31
400.057,-0.78,-3.71,0.9
400.067,-1.89,-3.97,-0.29
400.077,-2.48,-3.58,-1.22
400.087,-2.46,-2.94,-1.33
400.097,-2.04,-2.31,-0.57
400.108,-1.5,-2.06,1.01
400.118,-1.11,-2.0,2.68
400.128,-0.89,-1.77,3.79
400.138,-0.61,-1.41,4.2
400.148,-0.36,-0.86,3.91
400.158,0.13,-0.2,3.3
400.168,0.89,0.82,2.86
400.178,0.95,1.82,1.89
400.188,0.44,2.29,0.74
400.198,0.42,2.78,-0.23
400.208,0.21,3.01,-0.31
400.218,0.14,3.04,0.25
400.228,0.33,3.07,1.35
400.239,0.29,3.23,2.57
400.249,0.01,3.41,3.23
400.259,-0.32,3.55,3.6
400.269,-0.7,3.99,3.6
400.279,-1.0,4.65,2.81
400.289,-1.43,5.27,1.87
400.299,-2.08,5.78,1.18
400.309,-2.68,6.12,0.91
400.319,-3.04,6.18,1.0
400.329,-2.97,5.9,1.75
400.339,-3.03,5.34,3.18
400.349,-2.61,4.72,4.15
400.359,-2.63,4.33,4.84
400.37,-2.62,4.09,4.88
400.38,-2.44,4.14,4.48
400.39,-2.17,4.53,3.66
400.4,-1.97,4.92,2.62
400.41,-1.63,5.13,1.74
400.42,-1.43,5.24,1.17
400.43,-1.25,5.13,1.04
400.44,-1.11,4.93,1.42
400.45,-1.07,4.72,1.93
400.46,-1.22,4.43,2.38
400.47,-1.5,4.22,2.57
400.48,-1.8,4.12,2.34
400.49,-1.98,4.14,1.95
400.501,-2.17,4.17,1.53
400.511,-2.35,4.18,1.24
400.521,-2.47,4.23,1.09
400.531,-2.53,4.16,1.0
400.541,-2.6,3.91,1.12
400.551,-2.7,3.57,1.33
400.561,-2.85,3.14,1.39
400.571,-3.0,2.62,1.32
400.581,-3.16,2.22,1.22
400.591,-3.21,1.98,1.07
400.601,-3.21,1.78,0.91
400.611,-3.17,1.62,0.84
400.621,-3.18,1.47,0.81
400.631,-3.16,1.31,0.79
400.642,-3.2,1.19,0.81
400.652,-3.22,0.91,0.86
400.662,-3.15,0.62,1.02
400.672,-3.07,0.32,1.1
400.682,-2.96,0.11,1.11
400.692,-2.9,-0.01,0.87
400.702,-2.76,0.04,0.57
400.712,-2.61,0.15,0.2
400.722,-2.56,0.28,-0.1
400.732,-2.52,0.35,-0.18
400.742,-2.5,0.28,0.05
400.752,-2.49,0.08,0.56
400.763,-2.38,-0.11,1.12
400.773,-2.26,-0.17,1.39
400.783,-2.14,-0.15,1.31
400.793,-2.04,-0.1,0.95
400.803,-2.03,-0.0,0.45
400.813,-1.97,0.07,-0.04
400.823,-1.92,0.04,-0.32
400.833,-1.81,-0.07,-0.39
400.843,-1.74,-0.16,-0.33
400.853,-1.69,-0.23,-0.24
400.863,-1.42,-0.24,-0.18
400.873,-1.0,-0.13,-0.23
400.883,-0.61,0.07,-0.19
400.894,-0.3,0.32,-0.09
400.904,-0.07,0.51,0.08
400.914,0.05,0.63,0.32
400.924,0.17,0.75,0.62
400.934,0.26,0.97,0.88
400.944,0.37,1.2,0.93
400.954,0.47,1.39,0.75
400.964,0.45,1.46,0.51
400.974,0.44,1.48,0.4
400.984,0.42,1.51,0.49
400.994,0.37,1.46,0.69
401.004,0.37,1.47,1.01
401.014,0.35,1.45,1.31
401.025,0.26,1.4,1.6
401.035,0.2,1.35,1.79
401.045,0.23,1.39,1.81
401.055,0.25,1.48,1.71
401.065,0.28,1.56,1.73
401.075,0.29,1.65,1.81
401.085,0.38,1.79,1.82
401.095,0.58,2.06,1.73
401.105,0.8,2.19,1.51
401.115,1.05,2.26,1.28
401.125,1.27,2.32,1.22
401.135,1.3,2.26,1.37
401.146,1.12,2.1,1.45
401.156,0.91,2.03,1.44
401.166,0.66,1.91,1.32
401.176,0.45,1.82,1.17
401.186,0.29,1.68,1.01
401.196,0.16,1.51,0.81
401.206,0.04,1.36,0.46
401.216,0.03,1.36,-0.0
401.226,-0.1,1.43,-0.63
401.236,-0.18,1.48,-1.04
401.246,-0.28,1.46,-1.17
401.256,-0.4,1.34,-1.09
401.266,-0.56,1.25,-0.82
401.277,-0.64,1.25,-0.55
401.287,-0.68,1.16,-0.38
401.297,-0.62,1.05,-0.29
401.307,-0.49,0.98,-0.37
401.317,-0.38,0.93,-0.47
401.327,-0.18,0.83,-0.49
401.337,0.16,0.92,-0.47
401.347,0.46,0.94,-0.35
401.357,0.64,0.82,-0.13
401.367,0.78,0.63,0.18
401.377,0.91,0.36,0.5
401.387,0.95,0.1,0.73
401.397,0.98,-0.07,0.88
401.408,1.0,-0.23,0.94
401.418,1.04,-0.23,0.89
401.428,1.11,-0.2,0.72
401.438,1.17,-0.19,0.49
401.448,1.13,-0.18,0.27
401.458,1.06,-0.26,0.17
401.468,1.02,-0.41,0.35
401.478,1.04,-0.66,0.72
401.488,0.99,-0.92,1.08
401.498,0.92,-1.07,1.34
401.508,0.79,-1.15,1.38
401.518,0.65,-1.25,1.27
401.528,0.5,-1.36,1.16
401.539,0.41,-1.44,1.03
401.549,0.46,-1.45,0.92
401.559,0.42,-1.41,0.84
401.569,0.46,-1.52,0.9
401.579,0.51,-1.64,1.16
401.589,0.54,-1.68,1.42
401.599,0.63,-1.71,1.59
401.609,0.7,-1.83,1.61
401.619,0.6,-1.92,1.45
401.629,0.54,-2.09,1.16
401.639,0.48,-2.33,0.99
401.649,0.4,-2.51,0.96
401.659,0.24,-2.6,1.01
401.67,0.13,-2.73,1.05
401.68,0.03,-2.79,1.0
401.69,0.04,-2.79,0.92
401.7,0.05,-2.85,0.91
401.71,-0.02,-2.89,0.91
401.72,-0.14,-2.96,0.84
401.73,-0.37,-3.11,0.68
401.74,-0.51,-3.21,0.54
401.75,-0.59,-3.26,0.58
401.76,-0.59,-3.27,0.68
401.77,-0.54,-3.25,0.78
401.78,-0.45,-3.21,0.73
401.791,-0.31,-3.06,0.68
401.801,-0.1,-2.94,0.72
401.811,-0.04,-2.92,0.67
401.821,-0.08,-3.01,0.44
401.831,-0.23,-3.05,0.12
401.841,-0.3,-2.95,-0.24
401.851,-0.35,-2.91,-0.45
401.861,-0.43,-2.86,-0.54
401.871,-0.48,-2.82,-0.53
401.881,-0.54,-2.81,-0.44
401.891,-0.58,-2.76,-0.23
401.901,-0.54,-2.65,-0.08
401.912,-0.51,-2.5,-0.06
401.922,-0.6,-2.43,-0.09
401.932,-0.64,-2.33,-0.13
401.942,-0.66,-2.24,-0.18
401.952,-0.69,-2.24,-0.18
401.962,-0.72,-2.23,-0.22
401.972,-0.75,-2.29,-0.22
401.982,-0.75,-2.34,-0.15
401.992,-0.7,-2.36,-0.0
402.002,-0.59,-2.31,0.19
402.012,-0.53,-2.3,0.36
402.022,-0.48,-2.38,0.46
402.032,-0.44,-2.39,0.58
402.042,-0.4,-2.39,0.79
402.053,-0.28,-2.3,0.87
402.063,-0.21,-2.21,0.67
402.073,-0.17,-2.14,0.37
402.083,-0.16,-2.12,-0.02
402.093,-0.08,-1.95,-0.38
402.103,-0.08,-1.98,-0.74
402.113,-0.09,-2.28,-1.07
402.123,-0.23,-2.31,-1.23
402.133,-0.39,-2.5,-1.03
402.143,-0.54,-2.81,-0.48
402.153,-0.38,-2.8,0.12
402.163,-0.09,-2.51,0.47
402.173,0.21,-2.15,0.49
402.183,0.46,-2.03,0.24
402.194,0.81,-1.83,-0.09
402.204,1.11,-1.66,-0.42
402.214,1.31,-1.63,-0.7
402.224,1.18,-1.71,-0.71
402.234,0.96,-1.98,-0.29
402.244,0.69,-2.12,0.3
402.254,0.53,-2.14,0.66
402.264,0.69,-1.98,0.74
402.274,0.95,-1.75,0.41
402.284,1.31,-1.68,-0.05
402.294,1.6,-1.58,-0.39
402.305,2.03,-1.37,-0.55
402.315,2.1,-1.13,-0.78
402.325,1.02,-0.9,-0.35
402.335,0.63,-0.66,-0.17
402.345,0.69,0.12,-0.87
402.355,1.46,1.63,-1.95
402.365,1.74,2.98,-3.17
402.375,1.36,3.86,-4.07
402.385,1.54,4.45,-3.92
402.395,2.41,4.35,-2.32
402.405,2.95,3.72,0.23
402.415,3.61,2.16,2.95
402.425,3.5,0.09,6.45
402.435,0.74,-0.39,8.04
402.445,-0.96,-0.29,7.16
402.456,-2.01,0.68,5.27
402.466,-1.54,1.7,3.77
402.476,0.02,2.55,2.98
402.486,1.47,2.81,2.33
402.496,2.6,2.56,2.33
402.506,3.11,2.37,2.94
402.516,3.23,2.37,3.29
402.526,2.94,2.32,2.83
402.536,2.01,2.13,2.05
402.546,1.02,2.06,1.27
402.556,0.41,2.04,0.67
402.567,-0.17,1.71,0.44
402.577,-0.48,1.43,0.47
402.587,-0.37,1.29,0.63
402.597,-0.35,1.05,0.93
402.607,-0.19,0.91,1.43
402.617,0.21,1.05,1.55
402.627,0.35,1.09,1.3
402.637,0.23,1.03,1.26
402.647,0.03,0.9,1.3
402.657,-0.18,0.85,1.22
402.667,-0.38,0.84,0.9
402.677,-0.7,0.61,0.56
402.688,-0.83,0.32,0.52
402.698,-0.51,0.1,1.13
402.708,-0.24,-0.06,1.84
402.718,-0.3,-0.13,1.72
402.728,-0.51,-0.1,1.12
402.738,-0.71,0.04,0.6
402.748,-0.77,0.4,0.18
