timestamp,ax,ay,az
58.93,1.04,-1.66,5.16
58.94,1.65,-1.4,4.82
58.95,1.69,-1.18,4.41
58.96,1.05,-1.14,4.0
58.97,0.21,-1.32,3.59
58.98,-0.62,-1.65,2.96
58.99,-1.29,-1.96,2.27
59.0,-1.78,-2.04,1.56
59.01,-2.16,-1.81,0.99
59.02,-2.47,-1.46,0.82
59.03,-2.57,-0.91,1.05
59.041,-2.63,-0.05,1.0
59.051,-2.61,1.18,0.64
59.061,-2.37,2.61,0.23
59.071,-1.82,4.13,0.01
59.082,-1.3,5.52,-0.03
59.091,-0.96,6.49,0.16
59.101,-0.45,7.06,0.87
59.111,0.48,7.33,2.52
59.121,2.11,7.62,5.06
59.131,3.67,7.93,7.66
59.142,5.03,7.64,9.27
59.151,6.17,6.69,9.55
59.161,6.15,5.36,8.83
59.172,5.19,3.89,7.41
59.182,4.28,2.61,5.69
59.192,3.47,1.72,4.1
59.202,2.95,1.02,2.8
59.212,2.59,0.38,1.83
59.222,2.44,-0.01,1.07
59.232,2.35,-0.41,0.49
59.242,2.08,-1.09,0.21
59.252,1.59,-1.84,0.28
59.262,1.03,-2.5,0.44
59.272,0.65,-3.24,0.33
59.282,0.31,-3.79,-0.01
59.293,-0.09,-4.01,-0.57
59.303,-0.67,-4.17,-1.19
59.313,-1.18,-4.32,-1.82
59.323,-1.31,-4.46,-2.34
59.333,-1.25,-4.52,-2.69
59.343,-1.13,-4.39,-2.97
59.353,-0.84,-4.36,-3.34
59.363,-0.65,-4.58,-3.66
59.373,-0.75,-4.75,-3.83
59.383,-0.86,-4.73,-3.81
59.393,-0.87,-4.84,-3.41
59.403,-0.71,-4.98,-2.52
59.413,-0.52,-4.86,-1.43
59.423,0.27,-4.63,-0.48
59.434,1.29,-4.4,0.36
59.444,2.13,-4.24,1.05
59.454,2.93,-4.05,1.17
59.464,3.25,-3.92,0.66
59.474,3.23,-3.91,0.01
59.484,3.39,-3.72,-0.82
59.494,3.79,-3.38,-1.47
59.504,4.42,-2.88,-1.37
59.514,5.32,-2.07,-0.64
59.524,6.41,-1.29,0.44
59.534,7.45,-0.83,1.73
59.544,7.9,-0.57,2.96
59.555,8.05,-0.5,3.82
59.565,8.32,-0.49,4.12
59.575,8.24,-0.12,3.78
59.585,7.91,0.44,2.41
59.595,7.67,1.49,0.98
59.605,6.95,1.75,0.4
59.615,6.6,1.68,0.51
59.625,6.45,1.13,1.05
59.636,6.15,1.28,1.76
59.645,6.1,1.88,2.9
59.656,6.65,2.51,3.15
59.665,6.93,3.72,2.92
59.676,6.71,4.88,2.74
59.685,5.96,5.57,2.08
59.696,4.82,5.68,1.2
59.706,3.32,5.15,0.61
59.716,2.0,4.11,0.69
59.726,0.8,3.65,0.59
59.736,-0.25,4.37,0.35
59.746,-0.23,4.55,0.27
59.756,-0.83,4.63,0.26
59.766,-2.41,4.46,0.06
59.776,-4.12,3.58,-0.47
59.787,-5.55,2.78,-1.23
59.797,-6.24,2.34,-1.92
59.807,-6.37,1.89,-2.26
59.817,-5.89,1.24,-2.25
59.827,-4.9,0.56,-1.93
59.837,-3.95,-0.01,-1.54
59.847,-3.09,-0.73,-1.26
59.857,-2.48,-1.43,-1.23
59.867,-2.12,-1.95,-1.31
59.877,-2.27,-2.63,-1.56
59.887,-2.66,-3.52,-1.87
59.897,-2.97,-4.38,-2.0
59.907,-3.09,-5.06,-1.92
59.918,-2.87,-5.43,-1.81
59.927,-2.64,-5.64,-1.76
59.938,-2.4,-5.83,-1.72
59.948,-2.07,-6.05,-1.52
59.958,-1.78,-6.22,-1.25
59.968,-1.56,-6.24,-1.05
59.978,-1.4,-6.23,-0.97
59.989,-1.21,-6.21,-1.06
59.998,-0.88,-6.09,-1.38
60.008,-0.65,-5.85,-1.69
60.018,-0.32,-5.49,-2.11
60.028,0.3,-4.91,-2.49
60.039,-0.34,-4.8,-1.87
60.048,0.5,-4.51,-1.83
60.059,1.59,-3.86,-1.64
60.069,2.69,-2.96,-1.07
60.079,4.12,-1.91,-0.39
60.089,5.56,-0.9,0.7
60.099,6.78,0.15,1.94
60.109,7.69,1.5,2.09
60.119,8.16,2.74,1.38
60.129,8.16,3.37,0.76
60.139,7.43,3.37,0.07
60.149,6.17,3.07,-0.31
60.159,5.02,2.68,-0.34
60.169,4.18,2.27,-0.27
60.18,3.38,2.03,-0.07
60.19,2.37,1.8,0.08
60.2,1.24,1.44,0.06
60.21,0.45,1.22,-0.02
60.22,0.2,1.25,-0.08
60.23,0.21,1.33,-0.12
60.24,0.17,1.39,-0.29
60.25,0.21,1.29,-0.6
60.26,0.07,1.19,-0.99
60.27,-0.19,1.19,-1.4
60.28,-0.4,1.2,-1.81
60.29,-0.57,1.08,-1.99
60.301,-0.76,0.91,-1.99
60.31,-0.73,0.75,-1.83
60.321,-0.74,0.61,-1.58
60.331,-0.85,0.43,-1.5
60.341,-0.96,0.2,-1.58
60.351,-1.09,-0.13,-1.66
60.361,-1.13,-0.36,-1.73
60.371,-1.1,-0.35,-1.57
60.381,-0.74,-0.32,-1.19
60.391,-0.07,-0.13,-0.74
60.401,0.67,0.21,-0.14
60.411,1.28,0.52,0.55
60.422,1.76,0.83,1.14
60.431,1.96,1.18,1.51
60.442,1.93,1.62,1.65
60.452,1.82,2.05,1.72
60.462,1.67,2.29,1.89
60.472,1.47,2.55,2.11
60.482,1.22,2.86,2.25
60.492,0.93,2.95,2.41
60.502,0.81,2.96,2.56
60.512,0.27,2.65,2.62
60.522,-0.38,2.28,2.56
60.532,-1.06,1.88,2.43
60.542,-1.74,1.38,2.3
60.552,-2.25,1.04,2.02
60.562,-2.71,0.85,1.63
60.573,-3.06,0.79,1.21
60.583,-3.3,0.93,0.78
60.593,-3.51,1.14,0.25
60.603,-3.8,1.25,-0.32
60.613,-4.05,1.24,-0.9
60.623,-4.41,1.35,-1.67
60.633,-4.99,1.55,-2.14
60.643,-4.79,1.99,-2.01
60.653,-4.17,2.21,-1.65
60.663,-3.52,1.71,-1.32
60.673,-2.55,1.54,-0.7
60.683,-1.65,1.74,0.16
60.693,-1.07,1.86,1.02
60.704,-0.54,1.6,1.81
60.714,-0.07,0.98,2.36
60.724,0.14,0.16,2.57
60.734,-0.11,-0.77,2.29
60.744,-0.61,-1.81,1.56
60.754,-0.87,-2.62,0.82
60.764,-0.95,-3.0,0.4
60.774,-0.57,-2.94,0.41
60.784,0.34,-2.79,1.04
60.794,1.25,-2.99,1.9
60.804,1.69,-3.35,2.26
60.814,1.7,-3.62,2.09
60.824,1.54,-3.7,1.91
60.834,1.39,-3.56,1.66
60.845,1.52,-3.19,1.45
60.855,1.71,-2.82,1.41
60.865,2.04,-2.34,1.4
60.875,2.47,-1.87,1.34
60.885,2.89,-1.42,1.12
60.895,3.12,-0.92,0.8
60.905,3.28,-0.55,0.42
60.915,3.34,-0.33,-0.08
60.925,3.14,-0.12,-0.55
60.935,2.7,0.02,-0.9
60.946,2.17,0.01,-1.21
60.955,1.54,-0.02,-1.37
60.966,1.02,-0.02,-1.17
60.976,0.62,-0.19,-0.73
60.986,0.22,-0.44,-0.35
60.996,-0.2,-0.65,0.03
61.006,-0.53,-0.69,0.43
61.016,-0.9,-0.52,0.63
61.026,-1.18,-0.12,0.6
61.036,-1.55,0.52,0.49
61.046,-2.06,1.18,0.32
61.056,-2.55,1.73,-0.04
61.066,-2.9,2.31,-0.37
61.076,-3.02,3.01,-0.61
61.087,-3.23,3.84,-0.73
61.097,-3.56,4.62,-0.76
61.107,-3.71,5.29,-0.51
61.117,-3.43,5.86,0.12
61.127,-2.76,6.25,0.98
61.137,-1.93,6.44,1.93
61.147,-0.94,6.39,2.9
61.157,-0.11,6.18,3.63
61.167,0.26,5.64,4.03
61.177,0.38,4.82,4.06
61.187,0.25,3.89,3.66
61.197,-0.18,2.83,2.95
61.207,-0.58,1.71,2.28
61.218,-0.68,0.86,1.77
61.228,-0.41,0.37,1.33
61.238,-0.06,0.1,0.91
61.248,0.05,0.01,0.78
61.258,0.12,-0.12,0.85
61.268,0.24,-0.35,0.98
61.278,0.28,-0.75,1.15
61.288,0.16,-1.23,1.25
61.298,-0.1,-1.68,1.11
61.308,-0.51,-2.16,0.68
61.318,-0.9,-2.66,0.18
61.328,-1.25,-3.02,-0.18
61.338,-1.2,-3.08,-0.61
61.349,-0.76,-2.51,-1.32
61.359,-0.41,-2.15,-1.93
61.369,0.34,-1.69,-2.14
61.379,1.38,-1.2,-1.42
61.389,2.26,-0.93,0.06
61.399,3.18,-0.85,1.27
61.409,4.01,-0.83,1.93
61.419,4.69,-0.83,2.06
61.429,5.08,-0.86,1.82
61.439,5.24,-0.94,1.49
61.449,5.13,-1.03,1.26
61.459,4.44,-1.3,1.31
61.47,3.75,-1.67,1.23
61.479,3.02,-2.13,1.09
61.49,2.36,-2.59,0.8
61.5,1.7,-2.89,0.36
61.51,1.08,-3.06,-0.17
61.52,0.53,-3.2,-0.76
61.53,0.06,-3.16,-1.35
61.54,-0.28,-3.08,-1.54
61.55,-0.31,-3.12,-1.41
61.56,-0.78,-3.2,-2.26
61.57,-1.19,-3.43,-2.59
61.58,-1.12,-3.69,-2.69
61.591,-0.92,-3.63,-3.08
61.6,-0.36,-3.35,-3.54
61.611,0.71,-3.2,-3.76
61.621,2.31,-2.9,-3.48
61.631,3.57,-2.26,-2.35
61.641,4.71,-1.11,-0.87
61.651,6.02,0.09,0.6
61.661,6.67,1.01,2.06
61.671,6.93,1.87,2.82
61.681,6.87,2.27,2.86
61.691,6.33,2.34,2.47
61.701,5.35,2.26,1.74
61.711,4.36,2.02,0.82
61.721,3.72,1.92,0.04
61.732,3.52,2.02,-0.62
61.742,2.94,2.18,-1.1
61.752,1.78,2.4,-1.76
61.762,0.36,2.37,-2.4
61.772,-0.86,2.29,-2.92
61.782,-1.95,2.31,-3.11
61.792,-2.82,2.5,-3.05
61.802,-3.46,2.74,-2.86
61.812,-4.1,2.94,-2.59
61.822,-4.89,2.9,-2.38
61.832,-5.51,2.82,-2.07
61.842,-5.9,2.71,-1.64
61.853,-5.93,2.58,-1.19
61.862,-5.56,2.61,-0.63
61.873,-5.03,2.62,-0.08
61.883,-4.66,2.44,0.38
61.893,-4.43,2.03,0.77
61.903,-4.16,1.46,1.09
61.913,-3.86,0.88,1.36
61.923,-3.61,0.27,1.53
61.933,-3.37,-0.41,1.51
61.943,-3.15,-1.03,1.4
61.953,-2.9,-1.54,1.32
61.963,-2.57,-1.87,1.18
61.974,-2.25,-2.12,0.97
61.983,-2.04,-2.36,0.69
61.994,-1.88,-2.61,0.43
62.004,-1.7,-2.79,0.15
62.014,-1.51,-2.9,-0.23
62.024,-1.25,-2.8,-0.68
62.034,-1.07,-2.57,-1.1
62.044,-0.75,-2.2,-1.46
62.054,-0.15,-1.69,-1.65
62.064,0.89,-1.01,-1.43
62.074,2.34,-0.05,-0.75
62.084,3.76,0.88,0.11
62.094,4.83,1.65,0.99
62.104,5.49,2.47,1.65
62.115,5.68,3.0,1.9
62.124,5.5,3.08,1.69
62.135,4.83,2.87,1.11
62.145,3.78,2.51,0.39
62.155,2.96,2.0,-0.21
62.165,2.24,1.42,-0.74
62.175,1.47,0.99,-1.27
62.185,0.83,0.5,-1.67
62.195,0.18,-0.1,-1.88
62.205,-0.52,-0.58,-2.1
62.216,-1.07,-0.92,-2.36
62.225,-1.41,-1.15,-2.48
62.236,-1.67,-1.27,-2.47
62.245,-1.59,-1.36,-2.42
62.256,-1.35,-1.36,-2.32
62.266,-1.07,-1.2,-2.28
62.276,-0.86,-1.16,-2.21
62.286,-0.64,-1.18,-2.14
62.296,-0.4,-1.14,-2.01
62.306,-0.1,-1.03,-1.76
62.316,0.16,-0.93,-1.52
62.326,0.27,-0.93,-1.27
62.336,0.28,-0.97,-1.0
62.346,0.33,-1.0,-0.76
62.357,0.56,-0.84,-0.62
62.366,1.01,-0.52,-0.53
62.377,1.53,-0.14,-0.49
62.387,1.89,0.19,-0.53
62.397,1.83,0.3,-0.61
62.407,1.8,0.13,-0.75
62.417,2.11,0.02,-0.85
62.427,2.41,-0.26,-0.97
62.437,2.42,-0.78,-1.15
62.447,1.97,-1.2,-1.45
62.457,1.16,-1.59,-1.77
62.467,0.32,-1.93,-2.01
62.477,-0.61,-2.14,-2.09
62.487,-1.39,-2.14,-2.07
62.498,-1.82,-2.06,-1.98
62.508,-2.17,-2.08,-1.77
62.518,-2.59,-2.05,-1.57
62.528,-3.04,-1.97,-1.42
62.538,-3.51,-1.79,-1.34
62.548,-3.95,-1.58,-1.29
62.558,-4.34,-1.35,-1.34
62.568,-4.5,-1.4,-1.24
62.578,-4.25,-1.02,-0.72
62.588,-4.07,-0.36,-0.33
62.598,-4.15,0.44,-0.04
62.608,-4.39,1.59,0.15
62.619,-4.17,2.83,0.43
62.628,-3.11,3.89,0.98
62.639,-1.83,4.65,1.71
62.649,-0.77,4.98,2.55
62.659,0.27,4.99,3.02
62.669,1.03,4.78,2.96
62.679,1.4,4.48,2.66
62.689,1.58,4.13,2.11
62.699,1.59,3.7,1.62
62.709,1.37,3.22,1.49
62.719,1.17,2.49,1.73
62.729,1.15,1.66,2.14
62.739,1.34,1.15,2.49
62.749,1.52,0.58,2.85
62.76,1.71,-0.11,2.98
62.77,1.46,-0.8,2.88
62.78,1.09,-1.41,2.56
62.79,0.64,-1.88,2.17
62.8,0.26,-2.2,1.79
62.81,0.25,-2.33,1.53
62.82,0.31,-2.3,1.44
62.83,0.52,-2.12,1.46
62.84,0.81,-1.85,1.55
62.85,0.96,-1.78,1.65
62.86,1.1,-1.73,1.62
62.87,1.13,-1.65,1.5
62.88,1.04,-1.55,1.38
62.891,0.85,-1.48,1.18
62.901,0.68,-1.27,1.02
62.911,0.51,-1.05,0.98
62.921,0.4,-0.87,1.07
62.931,0.38,-0.76,1.17
62.941,0.37,-0.66,1.22
62.951,0.32,-0.52,1.12
62.961,0.27,-0.47,0.94
62.971,0.06,-0.5,0.7
62.981,-0.24,-0.49,0.49
62.991,-0.52,-0.39,0.32
63.001,-0.78,-0.15,0.2
63.011,-0.99,0.23,0.09
63.022,-1.17,0.68,0.02
63.032,-1.54,1.16,0.01
63.042,-2.16,1.6,0.08
63.052,-2.76,2.03,0.29
63.062,-3.19,2.45,0.63
63.072,-3.41,3.09,0.99
63.082,-3.4,3.96,1.4
63.092,-3.17,4.92,1.91
63.102,-2.65,5.89,2.6
63.112,-1.9,6.49,3.51
63.122,-0.6,6.53,4.42
63.132,0.73,6.18,5.08
63.143,1.53,5.47,5.3
63.153,1.83,4.51,5.12
63.163,1.76,3.5,4.46
63.173,1.31,2.44,3.43
63.183,0.7,1.53,2.32
63.193,0.14,0.87,1.32
63.203,-0.18,0.34,0.76
63.213,-0.32,-0.05,0.44
63.223,-0.41,-0.38,0.23
63.233,-0.45,-0.77,0.08
63.243,-0.56,-1.21,-0.03
63.253,-0.68,-1.53,-0.12
63.264,-0.63,-1.85,-0.27
63.273,-0.54,-2.17,-0.45
63.284,-0.31,-2.31,-0.58
63.294,-0.09,-2.36,-0.7
63.304,-0.09,-2.46,-0.78
63.314,-0.26,-2.69,-0.91
63.324,-0.49,-2.89,-1.09
63.334,-0.65,-3.04,-1.25
63.344,-0.72,-3.19,-1.3
63.354,-0.44,-3.22,-1.19
63.364,0.18,-3.11,-0.97
63.374,1.08,-3.02,-0.61
63.386,1.88,-2.86,-0.07
63.394,2.59,-2.68,0.54
63.405,3.39,-2.58,1.01
63.415,4.25,-2.52,1.34
63.425,5.04,-2.64,1.67
63.435,5.81,-2.86,1.95
63.445,6.53,-2.9,2.25
63.455,7.11,-2.79,2.47
63.465,7.58,-2.72,2.51
63.475,7.77,-2.74,2.39
63.485,7.54,-2.89,2.19
63.495,6.94,-3.14,1.9
63.505,6.1,-3.41,1.57
63.515,4.98,-3.69,1.14
63.526,3.76,-3.93,0.53
63.535,2.58,-4.01,-0.3
63.546,1.36,-4.01,-1.14
63.556,0.3,-4.0,-1.86
63.566,-0.52,-3.92,-2.51
63.576,-1.11,-3.83,-3.05
63.586,-1.52,-3.61,-3.36
63.596,-1.86,-3.18,-3.35
63.606,-1.85,-2.41,-3.12
63.616,-1.52,-1.55,-2.66
63.626,-1.13,-0.48,-2.04
63.636,-0.73,0.78,-1.46
63.647,-0.44,1.92,-1.01
63.657,-0.28,2.96,-0.78
63.667,-0.21,4.1,-0.79
63.677,-0.18,5.2,-0.86
63.687,-0.34,6.01,-0.93
63.697,-0.68,6.44,-0.84
63.707,-0.99,6.59,-0.6
63.717,-1.25,6.55,-0.33
63.727,-1.38,6.45,-0.11
63.737,-1.5,6.25,0.0
63.747,-1.56,5.93,0.03
63.757,-1.53,5.61,-0.08
63.768,-1.47,5.31,-0.37
63.777,-1.46,4.84,-0.6
63.787,-1.47,4.3,-0.68
63.797,-1.42,3.77,-0.73
63.808,-1.5,3.15,-0.69
63.818,-1.57,2.5,-0.57
63.828,-1.5,1.8,-0.43
63.838,-1.42,1.14,-0.24
63.848,-1.25,0.6,-0.1
63.858,-1.06,0.16,0.05
63.868,-0.89,-0.28,0.18
63.878,-0.71,-0.7,0.31
63.888,-0.73,-1.13,0.41
63.898,-0.81,-1.59,0.34
63.909,-0.87,-2.1,0.27
63.918,-0.79,-2.55,0.25
