timestamp,ax,ay,az
211.077,4.4,-1.06,5.16
211.086,3.58,-1.11,4.26
211.097,2.76,-1.01,3.53
211.107,1.97,-0.8,2.91
211.117,1.15,-0.48,2.4
211.127,0.46,-0.0,2.0
211.137,-0.17,0.4,1.67
211.147,-0.74,0.84,1.26
211.157,-1.04,1.27,0.79
211.167,-1.36,1.67,0.39
211.177,-1.51,2.09,-0.0
211.187,-1.43,2.53,-0.44
211.197,-1.54,2.8,-0.8
211.207,-1.64,2.93,-1.03
211.218,-1.7,3.1,-1.15
211.228,-1.84,3.24,-1.24
211.238,-2.05,3.26,-1.22
211.248,-2.14,3.16,-1.06
211.258,-2.07,3.15,-0.83
211.268,-1.91,3.04,-0.58
211.278,-1.71,2.91,-0.42
211.288,-1.66,2.74,-0.34
211.298,-1.7,2.5,-0.4
211.308,-1.89,2.2,-0.41
211.318,-1.98,1.89,-0.38
211.328,-2.01,1.57,-0.35
211.339,-2.13,1.32,-0.29
211.349,-2.18,0.98,-0.37
211.359,-2.29,0.69,-0.56
211.369,-2.35,0.51,-0.9
211.379,-2.3,0.45,-1.22
211.389,-1.9,0.56,-1.19
211.399,-1.34,0.71,-0.75
211.409,-0.73,0.74,-0.14
211.419,-0.22,0.67,0.44
211.429,0.26,0.65,0.96
211.439,0.8,0.77,1.36
211.449,1.39,0.92,1.6
211.46,1.98,1.01,1.68
211.469,2.39,0.94,1.56
211.48,2.54,0.72,1.32
211.49,2.49,0.42,0.91
211.5,2.23,0.05,0.36
211.51,1.82,-0.4,-0.19
211.52,1.39,-0.84,-0.64
211.53,0.9,-1.16,-0.99
211.54,0.56,-1.46,-1.21
211.55,0.35,-1.59,-1.38
211.56,0.16,-1.41,-1.3
211.57,0.04,-1.19,-1.12
211.581,0.02,-0.97,-1.08
211.591,-0.09,-0.76,-1.06
211.601,-0.3,-0.59,-1.06
211.611,-0.6,-0.3,-1.04
211.621,-1.02,0.05,-0.85
211.631,-1.34,0.31,-0.49
211.641,-1.54,0.57,-0.05
211.651,-1.75,1.01,0.43
211.661,-2.0,1.46,0.74
211.671,-2.16,1.96,0.74
211.682,-2.24,2.46,0.72
211.691,-2.25,2.77,0.69
211.701,-2.23,2.84,0.74
211.711,-2.05,2.73,0.92
211.722,-1.67,2.64,1.24
211.732,-1.41,2.58,1.87
211.742,-1.18,2.44,2.45
211.752,-0.95,2.31,2.74
211.762,-0.89,2.22,2.82
211.772,-0.99,2.16,2.66
211.782,-1.1,2.07,2.37
211.792,-1.24,1.96,2.07
211.802,-1.34,1.71,1.84
211.812,-1.44,1.45,1.68
211.822,-1.46,1.02,1.56
211.832,-1.43,0.62,1.5
211.842,-1.44,0.37,1.4
211.852,-1.39,0.12,1.2
211.863,-1.36,-0.11,0.91
211.873,-1.4,-0.35,0.63
211.883,-1.54,-0.63,0.33
211.893,-1.66,-0.97,0.03
211.903,-1.69,-1.37,-0.21
211.913,-1.53,-1.7,-0.35
211.923,-1.13,-1.88,-0.29
211.933,-0.69,-1.95,-0.03
211.943,-0.17,-2.01,0.21
211.953,0.4,-2.01,0.52
211.964,0.99,-2.0,0.84
211.974,1.66,-2.08,1.25
211.984,2.32,-1.89,1.63
211.994,2.83,-1.53,2.02
212.004,3.41,-1.34,2.43
212.014,3.78,-1.21,2.81
212.024,3.93,-1.12,3.06
212.034,4.02,-1.1,3.02
212.044,3.97,-1.06,2.61
212.054,3.53,-0.93,1.97
212.064,2.91,-0.94,1.0
212.074,2.36,-0.95,-0.03
212.084,1.59,-0.87,-0.94
212.094,0.84,-0.78,-1.49
212.105,0.33,-0.54,-1.98
212.114,-0.08,-0.17,-2.08
212.125,-0.27,0.2,-2.1
212.135,-0.42,0.7,-2.23
212.145,-0.61,1.2,-2.41
212.155,-0.74,1.55,-2.62
212.165,-0.82,1.66,-2.9
212.175,-0.89,1.77,-3.29
212.185,-0.96,1.75,-3.45
212.195,-0.77,1.71,-3.33
212.205,-0.47,1.77,-3.02
212.215,-0.06,1.8,-2.64
212.225,0.37,1.66,-2.22
212.236,0.81,1.43,-1.86
212.246,1.07,1.08,-1.51
212.256,1.2,0.57,-1.25
212.266,1.24,0.05,-1.04
212.276,1.21,-0.5,-0.92
212.286,1.07,-0.94,-0.82
212.296,0.9,-1.22,-0.77
212.306,0.76,-1.42,-0.75
212.316,0.62,-1.51,-0.72
212.326,0.57,-1.49,-0.62
212.336,0.5,-1.55,-0.57
212.346,0.53,-1.62,-0.58
212.356,0.46,-1.48,-0.69
212.367,0.31,-1.4,-0.83
212.377,0.35,-1.55,-0.88
212.387,0.46,-1.79,-0.89
212.397,0.56,-1.96,-0.91
212.407,0.66,-1.89,-0.97
212.417,0.79,-1.62,-1.05
212.427,1.02,-1.37,-1.11
212.437,1.27,-1.28,-1.11
212.447,1.44,-1.54,-0.87
212.457,1.83,-2.01,-0.48
212.467,2.34,-2.24,0.04
212.477,2.92,-2.27,0.57
212.488,3.45,-2.24,1.09
212.497,3.77,-2.26,1.54
212.508,4.03,-2.12,1.83
212.518,4.09,-1.92,1.94
212.528,4.03,-1.8,1.8
212.538,3.83,-1.71,1.39
212.548,3.48,-1.66,1.07
212.558,3.32,-1.81,0.82
212.568,3.15,-1.94,0.63
212.578,2.95,-1.97,0.54
212.588,2.93,-2.0,0.62
212.598,3.17,-1.88,0.81
212.609,3.63,-1.61,1.09
212.619,4.2,-1.14,1.37
212.629,4.58,-0.61,1.62
212.639,4.8,-0.28,1.62
212.649,4.91,-0.17,1.39
212.659,4.98,-0.08,0.91
212.669,4.93,0.11,0.38
212.679,4.78,0.21,-0.03
212.689,4.73,0.29,-0.26
212.699,4.49,0.56,-0.34
212.709,4.07,0.94,-0.41
212.719,3.67,1.28,-0.62
212.73,3.4,1.55,-0.83
212.739,3.22,1.81,-0.91
212.75,2.98,2.11,-0.97
212.76,2.71,2.2,-1.05
212.77,2.42,2.25,-1.34
212.78,2.01,2.36,-1.73
212.79,1.58,2.45,-2.18
212.8,1.15,2.59,-2.49
212.81,0.71,2.63,-2.65
212.82,0.35,2.43,-2.67
212.83,0.06,2.11,-2.5
212.84,-0.31,1.74,-2.2
212.85,-0.66,1.24,-1.77
212.86,-0.99,0.67,-1.3
212.871,-1.38,0.06,-0.83
212.88,-1.75,-0.49,-0.49
212.891,-2.16,-0.84,-0.41
212.901,-2.59,-0.99,-0.58
212.911,-3.01,-1.1,-0.82
212.921,-3.37,-1.38,-1.0
212.931,-3.52,-1.75,-1.07
212.941,-3.58,-2.24,-1.02
212.951,-3.34,-2.94,-0.65
212.961,-2.81,-3.39,-0.06
212.971,-2.15,-3.48,0.79
212.981,-1.37,-3.39,1.47
212.991,-0.62,-3.27,1.68
213.001,0.03,-2.89,1.62
213.012,0.6,-2.31,1.81
213.022,1.38,-1.88,2.39
213.032,2.42,-1.41,3.21
213.042,3.41,-1.24,4.41
213.052,4.42,-1.57,5.62
213.062,4.92,-1.72,6.56
213.072,4.85,-1.74,7.27
213.082,4.55,-1.83,7.7
213.092,4.15,-1.91,7.4
213.102,3.39,-1.87,6.71
213.112,2.42,-1.71,5.77
213.122,1.76,-1.43,4.63
213.133,1.23,-0.64,3.85
213.143,0.93,0.25,3.39
213.153,0.77,1.05,3.0
213.163,0.43,1.86,2.7
213.173,0.09,2.33,2.4
213.183,-0.19,2.58,1.98
213.193,-0.61,2.89,1.39
213.203,-1.07,3.21,0.75
213.213,-1.35,3.25,0.37
213.223,-1.63,3.26,0.21
213.233,-1.99,3.34,0.11
213.243,-2.17,3.43,0.1
213.254,-2.31,3.32,0.13
213.264,-2.55,3.11,0.14
213.274,-2.7,2.96,0.01
213.284,-2.84,2.98,-0.04
213.294,-2.94,3.03,0.06
213.304,-3.21,3.03,0.17
213.314,-3.43,2.83,0.21
213.324,-3.55,2.52,0.34
213.334,-3.69,2.19,0.61
213.344,-3.76,1.84,0.85
213.354,-3.81,1.49,1.05
213.364,-3.98,1.12,1.08
213.375,-4.14,0.66,0.89
213.385,-4.29,0.27,0.6
213.395,-4.45,0.0,0.23
213.405,-4.36,-0.32,0.05
213.415,-4.09,-0.54,0.13
213.425,-3.72,-0.83,0.57
213.435,-3.15,-1.13,1.11
213.445,-2.55,-1.2,1.91
213.455,-1.76,-1.06,2.76
213.465,-0.88,-0.72,3.44
213.475,-0.07,-0.12,3.78
213.485,0.46,0.41,3.77
213.495,0.82,0.96,3.47
213.505,1.14,1.35,3.09
213.516,1.5,1.44,2.9
213.525,1.86,1.36,2.82
213.536,2.24,1.14,2.85
213.546,2.6,0.86,2.96
213.556,2.8,0.58,3.06
213.566,2.88,0.23,2.93
213.576,2.64,0.02,2.42
213.586,2.04,-0.04,1.4
213.596,1.34,-0.08,0.29
213.606,0.89,-0.1,-0.66
213.616,0.59,-0.13,-1.47
213.626,0.25,-0.07,-2.08
213.637,-0.02,-0.0,-2.43
213.647,-0.13,0.11,-2.65
213.657,-0.26,0.33,-2.7
213.667,-0.39,0.52,-2.64
213.677,-0.53,0.74,-2.61
213.687,-0.85,1.03,-2.66
213.697,-1.47,1.18,-2.78
213.707,-2.07,1.23,-2.91
213.717,-2.62,1.26,-2.97
213.727,-3.0,1.23,-2.77
213.737,-3.09,1.02,-2.24
213.747,-3.0,0.78,-1.5
213.758,-2.9,0.53,-0.78
213.767,-2.87,0.23,-0.25
213.778,-2.94,-0.12,-0.01
213.788,-3.05,-0.42,0.06
213.798,-3.13,-0.54,0.13
213.808,-3.1,-0.6,0.23
213.818,-3.0,-0.62,0.31
213.828,-2.83,-0.52,0.26
213.838,-2.69,-0.35,0.18
213.848,-2.54,-0.24,0.16
213.858,-2.3,-0.26,0.24
213.868,-2.07,-0.39,0.44
213.878,-1.9,-0.65,0.7
213.888,-1.71,-0.87,1.06
213.899,-1.55,-1.08,1.38
213.908,-1.36,-1.14,1.41
213.919,-1.15,-1.04,1.19
213.929,-1.0,-0.89,0.97
213.939,-0.73,-0.88,0.93
213.949,-0.21,-1.0,1.09
213.959,0.52,-1.01,1.37
213.969,1.39,-0.95,1.83
213.979,2.59,-0.86,2.35
213.989,3.88,-0.77,2.83
213.999,5.08,-0.46,3.25
214.009,6.1,-0.17,3.56
214.019,6.85,0.03,3.65
214.03,7.1,0.14,3.65
214.04,6.88,-0.09,3.64
214.05,6.33,-0.49,3.63
214.06,5.81,-0.61,3.7
214.07,5.18,-0.58,3.82
214.08,4.74,-0.63,3.6
214.09,4.39,-0.64,3.0
214.1,3.95,-0.62,2.0
214.11,3.38,-0.53,0.93
214.12,2.6,-0.47,-0.01
214.13,1.92,-0.36,-0.8
214.141,1.4,-0.11,-1.28
214.15,0.99,0.14,-1.64
214.161,0.65,0.32,-1.89
214.171,0.32,0.35,-2.1
214.181,0.02,0.31,-2.34
214.191,-0.19,0.19,-2.47
214.201,-0.27,0.07,-2.57
214.211,-0.42,-0.03,-2.57
214.221,-0.55,-0.05,-2.49
214.231,-0.64,-0.04,-2.38
214.241,-0.65,0.02,-2.14
214.251,-0.61,0.11,-1.78
214.261,-0.51,0.24,-1.45
214.271,-0.25,0.46,-1.06
214.282,0.17,0.76,-0.82
214.292,0.34,1.14,-0.82
214.302,0.44,1.38,-1.23
214.312,0.41,1.43,-1.85
214.322,-0.0,1.45,-2.43
214.332,-0.33,1.33,-2.94
214.342,-0.55,1.09,-3.31
214.352,-0.81,0.81,-3.49
214.362,-1.09,0.4,-3.33
214.372,-1.31,-0.23,-2.89
214.382,-1.53,-1.01,-2.23
214.392,-1.73,-1.85,-1.53
214.403,-1.92,-2.72,-1.04
214.413,-2.2,-3.52,-0.73
214.423,-2.32,-4.03,-0.67
214.433,-2.52,-4.16,-0.68
214.443,-2.62,-4.19,-0.71
214.453,-2.51,-4.31,-0.64
214.463,-2.29,-4.3,-0.46
214.473,-1.91,-4.08,-0.24
214.483,-1.16,-3.69,0.05
214.493,-0.31,-3.15,0.4
214.503,0.63,-2.57,0.75
214.513,1.61,-1.9,1.16
214.523,2.31,-1.02,1.75
214.533,3.13,-0.21,2.24
214.544,3.86,0.53,2.58
214.554,4.23,1.24,2.65
214.564,4.32,1.63,2.56
214.574,4.19,1.55,2.39
214.584,3.94,1.25,2.2
214.594,3.68,0.88,2.17
214.604,3.61,0.5,2.28
214.614,3.46,0.17,2.41
214.624,3.12,-0.11,2.18
214.634,2.64,-0.34,1.78
214.644,2.28,-0.49,1.38
214.654,2.1,-0.51,1.32
214.664,2.08,-0.42,1.49
214.675,2.23,-0.13,1.64
214.685,2.37,0.31,1.66
214.695,2.43,0.73,1.4
214.705,2.53,1.14,0.93
214.715,2.59,1.55,0.31
214.725,2.33,1.89,-0.46
214.735,1.8,2.12,-1.34
214.745,1.18,2.08,-2.06
214.755,0.8,1.85,-2.47
214.765,0.58,1.66,-2.7
214.775,0.49,1.52,-2.87
214.786,0.48,1.43,-3.08
214.796,0.45,1.3,-3.28
214.806,0.56,1.04,-3.3
214.816,0.81,0.67,-3.22
214.826,0.78,0.18,-3.19
214.836,0.51,-0.29,-3.26
214.846,0.25,-0.7,-3.34
214.856,0.02,-1.14,-3.47
214.866,-0.27,-1.6,-3.54
214.876,-0.61,-2.06,-3.6
214.886,-0.88,-2.49,-3.63
214.896,-0.98,-2.9,-3.66
214.907,-1.04,-3.18,-3.61
214.916,-1.04,-3.28,-3.54
214.927,-1.11,-3.18,-3.37
214.937,-1.03,-3.14,-2.93
214.947,-0.78,-3.21,-2.33
214.957,-0.6,-3.31,-1.66
214.967,-0.41,-3.43,-0.73
214.977,-0.18,-3.5,0.69
214.987,-0.0,-3.47,2.15
214.997,0.46,-3.06,3.64
215.007,1.16,-2.02,4.87
215.017,2.02,-0.46,6.15
215.027,2.98,0.95,7.04
215.037,4.12,2.02,7.12
215.048,5.13,2.97,6.67
215.058,5.75,3.44,6.28
215.068,6.2,3.25,5.98
215.078,6.43,2.75,6.01
215.088,6.4,1.93,6.26
215.098,6.32,1.02,6.28
215.108,6.03,0.36,5.91
215.118,5.31,-0.07,5.26
215.128,4.14,-0.3,4.33
215.138,2.87,-0.15,3.27
215.148,1.79,0.21,2.2
215.158,0.79,0.71,1.17
215.168,-0.34,1.28,0.46
215.178,-1.36,1.55,-0.08
215.189,-2.18,1.69,-0.4
215.199,-2.97,1.87,-0.39
215.209,-3.63,2.1,0.0
215.219,-4.19,2.06,0.7
215.229,-4.56,1.75,1.39
215.239,-4.81,1.41,2.04
215.249,-4.89,1.08,2.64
215.259,-4.77,0.74,3.08
215.269,-4.54,0.43,3.28
215.279,-4.28,0.23,3.12
215.29,-4.16,0.18,2.78
215.299,-4.16,0.1,2.26
215.31,-4.25,-0.07,1.59
215.32,-4.34,-0.23,1.01
215.33,-4.43,-0.34,0.61
215.34,-4.55,-0.35,0.38
215.35,-4.71,-0.32,0.23
215.36,-4.76,-0.29,0.15
215.37,-4.77,-0.29,0.17
215.38,-4.75,-0.2,0.25
215.39,-4.54,-0.1,0.37
215.4,-4.34,-0.09,0.39
215.41,-4.11,-0.24,0.45
215.42,-3.77,-0.41,0.58
215.431,-3.42,-0.68,0.7
215.441,-2.95,-0.86,0.86
215.451,-2.41,-0.86,0.96
215.461,-1.83,-0.73,1.14
215.471,-1.34,-0.67,1.31
215.481,-0.93,-0.75,1.56
215.491,-0.41,-0.86,1.94
215.501,0.16,-0.84,2.58
215.511,0.76,-0.87,3.49
215.521,1.3,-0.84,4.38
215.531,1.82,-0.64,5.29
215.541,2.29,-0.45,5.93
215.552,2.76,-0.11,6.2
215.561,3.08,0.03,6.12
215.572,3.33,-0.07,5.71
215.582,3.48,-0.16,4.89
215.592,3.34,-0.17,3.93
215.602,3.03,-0.22,3.19
215.612,2.74,-0.15,2.82
215.622,2.4,0.09,2.75
215.632,2.02,0.29,2.78
215.642,1.58,0.56,2.77
215.652,0.99,0.85,2.59
215.662,0.39,1.29,2.35
215.672,-0.02,1.76,2.1
215.682,-0.47,1.95,1.75
215.693,-1.07,2.11,1.38
215.703,-1.73,2.39,1.03
215.713,-2.41,2.55,0.58
215.723,-3.05,2.54,0.29
215.733,-3.41,2.28,0.15
215.743,-3.67,1.95,0.07
215.753,-3.74,1.74,0.03
215.763,-3.67,1.61,-0.02
215.773,-3.5,1.49,-0.14
215.783,-3.31,1.34,-0.24
215.793,-3.22,1.27,-0.31
215.803,-3.27,1.17,-0.44
215.814,-3.39,0.92,-0.75
215.824,-3.6,0.54,-1.1
215.834,-3.92,0.23,-1.39
215.844,-4.18,-0.04,-1.7
215.854,-4.4,-0.37,-1.79
215.864,-4.43,-0.75,-1.82
215.874,-4.27,-1.08,-1.62
215.884,-4.09,-1.6,-0.72
215.894,-2.96,-1.73,-0.89
215.904,-2.66,-1.69,-1.23
215.914,-2.32,-1.89,-0.99
215.924,-1.42,-1.97,-0.48
215.934,-0.72,-1.89,-0.1
215.944,-0.07,-1.75,-0.09
215.955,1.01,-1.73,0.09
215.965,1.97,-1.51,0.85
215.975,2.91,-1.27,2.1
215.985,3.76,-1.23,3.3
215.995,4.71,-1.25,4.22
216.005,5.55,-0.89,4.74
216.015,6.17,-0.32,4.53
216.025,6.94,-0.07,3.95
216.035,7.35,0.11,3.66
216.045,7.59,-0.16,3.17
216.055,7.64,-0.62,2.41
216.065,7.43,-0.89,1.73
