timestamp,ax,ay,az
112.805,-2.92,-1.84,1.59
112.815,-2.84,-1.79,1.37
112.825,-2.84,-1.47,1.31
112.835,-2.73,-1.21,1.25
112.845,-2.31,-0.94,1.13
112.855,-1.84,-0.53,1.08
112.865,-1.46,-0.27,1.03
112.875,-1.02,-0.22,0.86
112.885,-0.53,-0.25,0.86
112.895,-0.14,-0.34,0.88
112.905,0.24,-0.39,1.1
112.915,0.68,-0.41,1.49
112.926,1.16,-0.24,1.64
112.936,1.28,0.06,1.68
112.946,1.48,0.37,1.61
112.956,2.03,0.64,1.51
112.966,2.39,0.77,1.33
112.976,2.72,0.8,1.01
112.986,2.92,0.83,0.68
112.996,3.01,0.59,0.38
113.006,2.87,0.16,0.03
113.016,2.55,-0.09,-0.23
113.026,2.33,-0.23,-0.4
113.036,2.2,-0.23,-0.38
113.047,2.16,-0.06,-0.27
113.057,2.26,0.26,-0.06
113.067,2.17,0.42,0.09
113.077,1.9,0.64,0.03
113.087,1.77,0.94,-0.07
113.097,1.98,1.08,0.05
113.107,2.37,1.18,0.44
113.117,2.72,1.2,0.8
113.127,2.94,1.17,1.04
113.137,3.08,1.12,1.15
113.147,2.9,1.07,1.13
113.157,2.69,0.92,1.11
113.168,2.23,0.68,0.99
113.177,1.63,0.62,0.63
113.188,0.93,0.74,0.3
113.198,0.25,0.89,0.02
113.208,-0.49,0.88,-0.29
113.218,-1.14,0.96,-0.52
113.228,-1.47,1.08,-0.49
113.238,-1.55,1.2,-0.32
113.248,-1.49,1.35,-0.02
113.258,-1.41,1.45,0.22
113.268,-1.48,1.47,0.39
113.278,-1.83,1.49,0.42
113.288,-2.45,1.46,0.33
113.298,-3.28,1.42,0.23
113.308,-4.11,1.48,0.26
113.318,-4.75,1.6,0.38
113.329,-5.23,1.81,0.43
113.339,-5.44,1.94,0.57
113.349,-5.27,1.96,0.85
113.359,-4.58,1.9,1.25
113.369,-3.71,1.63,1.77
113.379,-2.64,1.16,2.44
113.389,-1.68,0.63,2.95
113.399,-1.02,0.06,3.09
113.409,-0.8,-0.48,2.99
113.419,-0.94,-0.83,2.55
113.43,-1.04,-1.13,1.87
113.439,-1.36,-1.31,1.27
113.45,-1.84,-1.35,0.79
113.46,-2.11,-1.46,0.3
113.47,-2.16,-1.58,0.13
113.48,-2.17,-1.83,0.27
113.49,-2.3,-2.11,-0.18
113.5,-2.15,-2.29,-0.66
113.51,-2.22,-2.6,-0.75
113.52,-2.17,-2.92,-0.85
113.53,-2.05,-3.19,-0.86
113.54,-1.72,-3.24,-0.82
113.55,-1.37,-3.07,-0.8
113.56,-1.02,-2.7,-0.88
113.571,-0.59,-2.16,-0.92
113.581,-0.35,-1.51,-0.77
113.591,-0.24,-0.92,-0.36
113.601,0.01,-0.38,0.27
113.611,0.52,-0.03,1.0
113.621,1.29,0.22,1.63
113.631,2.21,0.55,2.24
113.641,3.15,0.84,2.46
113.651,3.97,0.95,2.06
113.661,4.2,0.97,1.35
113.671,3.95,0.91,0.49
113.681,3.7,0.73,-0.15
113.692,3.7,0.56,-0.32
113.701,3.81,0.38,-0.21
113.712,4.01,0.09,-0.02
113.722,4.12,-0.33,0.14
113.732,3.98,-0.86,0.23
113.742,3.59,-1.39,0.15
113.752,3.0,-1.92,-0.19
113.762,2.05,-2.5,-0.92
113.772,1.03,-3.11,-1.79
113.782,0.25,-3.59,-2.48
113.792,-0.19,-3.94,-3.06
113.802,-0.27,-4.1,-3.56
113.813,0.21,-4.03,-3.85
113.822,0.97,-3.74,-3.86
113.833,1.84,-3.49,-3.62
113.843,2.9,-3.31,-3.26
113.853,3.94,-3.0,-2.93
113.863,5.02,-2.51,-2.78
113.873,6.04,-1.86,-2.63
113.883,6.79,-1.34,-2.3
113.893,7.42,-0.97,-1.97
113.903,8.02,-0.4,-1.42
113.913,8.63,0.59,-0.6
113.923,9.55,2.0,0.52
113.933,10.42,3.48,2.0
113.943,11.43,4.39,3.27
113.954,11.9,4.65,3.75
113.963,11.27,4.56,3.22
113.974,9.91,4.06,1.83
113.984,8.25,3.22,0.38
113.994,6.65,2.51,-0.89
114.004,5.2,1.81,-1.79
114.014,4.01,1.29,-2.43
114.024,3.33,1.22,-2.65
114.034,2.76,1.3,-2.43
114.044,2.41,1.35,-1.97
114.054,2.16,1.5,-1.53
114.064,1.71,1.68,-1.06
114.074,1.14,1.78,-0.62
114.084,0.55,1.77,-0.08
114.095,0.11,1.77,0.45
114.105,-0.41,1.75,0.84
114.115,-0.84,1.81,1.07
114.125,-1.17,2.0,1.31
114.135,-1.35,2.22,1.47
114.145,-1.37,2.31,1.6
114.155,-1.31,2.3,1.7
114.165,-1.28,2.21,1.76
114.175,-1.49,2.11,1.75
114.185,-1.81,1.95,1.73
114.195,-2.06,1.74,1.82
114.205,-2.32,1.58,2.03
114.216,-2.54,1.42,2.29
114.225,-2.76,1.31,2.54
114.236,-2.94,1.27,2.76
114.246,-3.28,1.28,2.95
114.256,-3.97,1.22,2.95
114.266,-4.63,1.11,2.84
114.276,-5.28,0.98,2.89
114.286,-5.5,0.9,3.16
114.296,-5.38,0.85,3.56
114.306,-5.13,0.93,3.96
114.316,-4.83,1.18,4.26
114.326,-4.39,1.51,4.22
114.336,-3.98,1.75,3.91
114.346,-3.71,1.92,3.41
114.357,-3.57,1.96,2.85
114.367,-3.72,1.8,2.25
114.377,-3.91,1.57,1.61
114.387,-4.16,1.42,1.01
114.397,-4.29,1.45,0.58
114.407,-4.14,1.72,0.23
114.417,-3.55,2.17,-0.04
114.427,-2.62,2.69,-0.1
114.437,-1.54,3.17,0.12
114.447,-0.54,3.46,0.25
114.457,0.16,3.43,0.22
114.467,0.57,3.27,0.12
114.478,0.77,3.13,-0.16
114.487,0.91,3.0,-0.4
114.498,1.17,3.0,-0.51
114.508,1.79,3.1,-0.07
114.518,2.32,3.24,-0.38
114.528,1.63,2.94,-1.57
114.538,1.54,2.6,-1.88
114.548,1.41,2.25,-1.83
114.558,1.06,1.85,-2.08
114.568,1.1,1.51,-2.09
114.578,1.13,1.23,-1.87
114.588,1.14,0.86,-1.7
114.599,1.22,0.4,-1.54
114.608,1.37,0.09,-1.36
114.619,1.26,-0.15,-1.33
114.629,0.91,-0.46,-1.28
114.639,0.37,-0.92,-0.7
114.649,0.5,-1.21,-0.3
114.659,0.59,-1.42,-1.36
114.669,-0.02,-1.55,-1.97
114.679,-0.18,-1.45,-2.3
114.689,-0.45,-1.53,-2.3
114.7,-0.85,-1.8,-2.08
114.709,-1.16,-2.01,-1.8
114.72,-1.26,-2.19,-1.39
114.73,-1.57,-2.44,-0.88
114.74,-2.23,-2.76,-0.44
114.75,-2.69,-3.1,-0.07
114.76,-2.68,-3.39,0.19
114.77,-2.51,-3.38,0.24
114.78,-2.51,-3.24,0.1
114.79,-2.6,-3.24,-0.13
114.8,-2.43,-3.12,-0.45
114.81,-2.04,-2.76,-0.76
114.82,-0.98,-2.39,1.43
114.83,-1.14,-1.48,-0.66
114.84,-0.25,-1.01,-1.18
114.85,0.47,-0.8,-0.56
114.86,1.13,-0.13,0.14
114.87,1.7,0.29,0.96
114.881,2.33,0.52,1.6
114.891,2.7,0.63,2.09
114.901,2.87,0.55,2.25
114.911,2.93,0.19,2.18
114.921,2.9,-0.55,1.96
114.931,2.62,-1.3,1.8
114.941,2.17,-2.1,1.64
114.951,1.6,-2.96,1.4
114.961,1.02,-3.79,1.15
114.971,0.45,-4.52,0.9
114.981,0.0,-5.16,0.67
114.991,-0.59,-5.78,0.34
115.002,-1.3,-6.25,0.02
115.012,-1.88,-6.55,-0.3
115.022,-2.37,-6.61,-0.71
115.032,-2.51,-6.48,-1.11
115.042,-2.2,-6.29,-1.3
115.052,-1.68,-6.11,-1.24
115.062,-1.12,-5.76,-1.01
115.072,-0.57,-5.18,-0.71
115.082,0.15,-4.5,-0.21
115.092,0.81,-3.7,0.25
115.102,1.47,-2.84,0.81
115.112,2.33,-1.78,1.5
115.122,3.11,-0.49,1.52
115.132,3.58,0.95,1.59
115.143,4.13,2.37,1.85
115.153,4.51,3.73,2.05
115.163,4.7,4.81,2.18
115.173,4.97,5.48,2.45
115.183,5.1,5.6,2.87
115.193,4.99,5.18,3.09
115.203,4.82,4.6,3.08
115.213,4.61,4.02,2.96
115.223,4.38,3.54,2.89
115.233,3.98,3.13,2.61
115.244,3.45,2.65,2.11
115.253,2.93,2.01,1.53
115.264,2.33,1.42,1.0
115.274,1.77,0.95,0.48
115.284,1.18,0.59,0.01
115.294,0.76,0.37,-0.36
115.304,0.48,0.32,-0.62
115.314,0.21,0.4,-0.75
115.324,-0.02,0.38,-0.76
115.334,-0.19,0.31,-0.6
115.344,-0.43,0.23,-0.45
115.354,-0.66,0.13,-0.41
115.364,-0.89,-0.0,-0.25
115.374,-1.15,-0.11,0.06
115.384,-1.08,0.05,0.58
115.394,-0.83,0.54,1.06
115.405,-0.6,1.05,1.37
115.415,-0.23,1.48,1.54
115.425,0.01,1.95,1.7
115.435,0.33,2.45,1.68
115.445,0.6,2.83,1.64
115.455,0.77,3.05,1.66
115.465,0.88,3.22,1.71
115.475,0.94,3.49,1.86
115.485,1.23,3.87,2.22
115.495,1.6,4.36,2.72
115.506,1.95,4.83,3.21
115.515,2.18,4.97,3.52
115.526,1.89,4.66,3.7
115.536,1.32,4.1,3.6
115.546,0.75,3.53,3.14
115.556,0.08,2.97,2.51
115.566,-0.89,2.42,1.94
115.576,-1.76,2.15,1.25
115.586,-2.18,2.22,0.39
115.596,-2.59,2.58,-0.5
115.606,-2.81,3.06,-1.22
115.616,-2.6,3.45,-1.8
115.626,-2.23,3.72,-2.18
115.636,-1.84,3.98,-2.31
115.646,-1.45,3.94,-2.14
115.657,-0.94,3.71,-2.11
115.667,-0.62,3.51,-2.3
115.677,-0.49,3.39,-2.32
115.687,-0.66,3.2,-2.22
115.697,-0.88,2.9,-2.03
115.707,-1.06,2.31,-0.76
115.717,-0.5,1.69,0.36
115.727,-0.01,1.26,0.31
115.737,0.27,0.72,1.56
115.747,0.83,-0.06,2.33
115.757,0.63,-0.81,2.67
115.767,-0.03,-1.56,2.59
115.777,-0.74,-2.31,2.15
115.788,-1.53,-3.0,1.57
115.797,-2.27,-3.67,1.1
115.808,-2.89,-4.28,0.72
115.818,-3.2,-4.84,0.38
115.828,-3.14,-5.21,0.08
115.838,-3.07,-5.33,-0.13
115.848,-3.22,-5.45,-0.57
115.858,-3.15,-5.35,-1.1
115.868,-2.82,-4.9,-1.49
115.878,-2.28,-4.22,-1.76
115.888,-1.46,-3.4,-1.9
115.898,-0.8,-2.48,-1.9
115.909,-0.17,-1.7,-1.61
115.918,0.59,-0.99,-0.81
115.929,1.44,-0.59,1.42
115.939,2.04,-0.49,3.16
115.949,0.38,-0.81,2.32
115.959,1.34,-1.33,3.46
115.969,0.67,-1.78,4.28
115.979,-0.0,-2.47,3.86
115.989,-0.11,-3.15,3.35
115.999,0.12,-3.5,2.39
116.009,1.2,-3.36,1.31
116.019,1.71,-2.95,0.59
116.03,1.76,-2.88,0.23
116.039,1.98,-3.01,0.18
116.05,2.14,-3.06,-0.04
116.06,2.77,-3.26,-0.42
116.07,3.91,-3.46,-0.54
116.08,5.19,-3.28,-0.47
116.09,6.47,-2.84,-0.31
116.1,7.35,-2.39,-0.01
116.11,7.71,-1.79,0.13
116.12,7.28,-1.74,0.24
116.13,6.54,-2.1,0.6
116.14,6.5,-1.58,0.78
116.15,5.77,-2.3,0.47
116.16,5.14,-3.31,-0.16
116.171,4.34,-4.05,-0.46
116.18,3.34,-4.59,-0.61
116.191,2.42,-5.27,-0.92
116.2,1.31,-5.9,-0.94
116.211,-0.04,-6.4,-0.5
116.221,-0.73,-6.6,0.01
116.231,-0.69,-6.37,0.17
116.241,-0.12,-5.54,-0.48
116.251,0.58,-4.42,-1.79
116.261,1.71,-3.28,-3.02
116.271,2.93,-2.01,-4.2
116.281,4.57,-0.06,-5.34
116.291,6.39,2.47,-6.39
116.301,8.43,4.77,-6.77
116.312,10.23,6.11,-6.45
116.321,10.75,6.41,-5.79
116.332,9.44,5.87,-4.57
116.342,7.52,5.08,-2.59
116.352,5.77,4.52,-1.05
116.362,4.6,4.26,-0.52
116.372,3.95,4.15,-1.07
116.382,2.94,3.91,-1.87
116.392,1.76,3.48,-2.32
116.402,1.14,2.96,-2.45
116.412,0.79,2.55,-2.44
116.422,0.24,2.13,-2.2
116.432,-0.55,1.76,-1.8
116.442,-1.62,1.49,-1.13
116.453,-2.43,1.48,-0.43
116.463,-2.78,1.63,0.38
116.473,-2.92,1.79,1.07
116.483,-2.96,2.21,1.5
116.493,-3.04,2.69,1.56
116.503,-2.87,3.27,1.17
116.513,-2.9,3.9,0.76
116.523,-3.52,4.15,0.66
116.533,-3.98,4.02,0.8
116.543,-4.65,3.71,1.17
116.553,-5.31,3.4,1.6
116.563,-5.55,3.28,2.0
116.574,-5.65,3.49,2.77
116.583,-5.72,4.04,3.51
116.594,-5.93,4.36,3.75
116.604,-5.98,4.25,3.72
116.614,-5.9,4.12,3.66
116.624,-5.98,4.1,3.76
116.634,-6.31,4.05,4.09
116.644,-6.64,3.91,4.47
116.654,-6.91,3.73,4.83
116.664,-6.82,3.5,5.09
116.674,-6.57,3.2,5.32
116.684,-6.19,2.89,5.49
116.694,-5.56,2.48,5.56
116.704,-5.18,2.24,5.42
116.715,-5.16,1.96,4.66
116.725,-5.19,1.43,3.66
116.735,-5.44,0.98,2.85
116.745,-6.01,0.44,2.34
116.755,-6.86,-0.19,2.31
116.765,-7.6,-0.41,2.64
116.775,-7.62,-0.32,2.93
116.785,-7.14,-0.07,2.82
116.795,-6.56,0.27,2.24
116.805,-5.82,0.58,1.26
116.815,-5.07,0.88,0.27
116.825,-4.48,1.37,-0.57
116.835,-3.91,1.93,-1.33
116.845,-3.3,2.49,-2.09
116.856,-2.46,3.07,-2.63
116.866,-1.3,3.41,-2.5
116.876,-0.1,3.73,-1.39
116.886,0.89,3.85,-0.14
116.896,1.61,3.6,0.77
116.906,2.04,3.15,1.75
116.916,2.1,2.67,2.53
116.926,1.64,2.05,2.53
116.936,0.89,1.43,1.62
116.946,0.34,0.9,0.22
116.956,0.13,0.64,-1.13
116.966,0.26,0.75,-2.41
116.977,0.38,1.26,-3.57
116.987,0.61,1.57,-4.12
116.997,1.84,1.35,-3.52
117.007,3.83,1.19,-1.12
117.017,5.53,1.23,2.39
117.027,6.54,1.09,6.1
117.037,7.02,0.3,10.12
117.047,8.12,-0.02,13.13
117.057,6.62,0.83,5.32
117.068,9.92,1.59,4.25
117.077,9.49,2.39,3.04
117.087,8.79,3.07,1.81
117.097,6.85,2.17,2.13
117.108,5.61,0.68,3.51
117.118,4.77,0.13,1.93
117.128,4.14,-0.1,1.51
117.138,3.2,-0.68,1.79
117.148,2.38,-0.91,0.93
117.158,1.59,-0.94,0.23
117.168,1.45,-0.94,-0.63
117.178,1.29,-0.8,-1.18
117.188,1.39,-0.74,-1.47
117.198,1.37,-0.82,-1.52
117.208,1.0,-1.27,-1.45
117.218,0.68,-1.72,-1.44
117.229,0.47,-2.1,-1.48
117.239,0.32,-2.4,-1.57
117.249,0.04,-2.66,-1.75
117.259,-0.29,-2.8,-2.12
117.269,-0.49,-2.9,-2.46
117.279,-1.03,-3.14,-2.74
117.289,-2.01,-3.66,-3.18
117.299,-2.53,-4.27,-3.35
117.309,-2.7,-4.62,-3.08
117.319,-2.7,-4.94,-2.67
117.329,-2.58,-5.29,-2.51
117.339,-2.09,-5.33,-2.9
117.349,-1.51,-5.03,-3.7
117.359,-0.96,-4.72,-4.44
117.369,-0.2,-4.43,-5.11
117.38,0.62,-4.15,-5.27
117.39,1.15,-4.1,-4.89
117.4,1.67,-4.02,-4.15
117.41,2.12,-3.85,-3.48
117.42,2.33,-3.49,-3.02
117.43,2.46,-3.19,-2.86
117.44,2.68,-2.98,-2.92
117.45,2.95,-2.77,-2.82
117.46,2.89,-2.84,-2.55
117.47,2.55,-3.1,-2.13
117.481,2.18,-3.37,-1.71
117.49,1.81,-3.34,-1.29
117.501,1.48,-3.01,-1.01
117.511,1.24,-2.6,-1.24
117.521,0.88,-2.16,-1.87
117.531,0.87,-1.47,-2.37
117.541,1.04,-0.71,-2.02
117.551,1.11,-0.19,-0.69
117.561,1.45,0.08,0.3
117.571,1.78,0.42,1.53
117.581,1.56,0.88,2.12
117.591,0.95,1.27,1.81
117.601,0.57,1.82,1.29
117.611,0.1,2.56,0.94
117.622,-0.44,3.02,0.85
117.632,-0.4,3.58,1.74
117.642,0.09,4.24,3.0
117.652,1.23,4.51,4.28
117.662,2.85,4.36,5.98
117.672,4.57,4.11,7.52
117.682,5.9,3.75,8.26
117.692,6.42,3.16,9.02
117.702,6.69,2.62,10.26
117.712,7.19,2.37,11.31
117.722,7.7,2.03,12.24
117.732,7.72,1.38,13.38
117.743,7.1,0.93,13.33
117.753,6.23,0.45,12.3
117.763,5.16,-0.05,10.89
117.773,3.99,-0.37,9.06
117.783,3.03,-0.46,7.28
117.793,2.4,-0.51,5.65
