timestamp,ax,ay,az
40.043,-0.25,-1.73,-0.07
40.054,-0.46,-2.07,-0.28
40.063,-0.65,-2.35,-0.46
40.073,-0.85,-2.51,-0.61
40.083,-1.16,-2.64,-0.73
40.093,-1.46,-2.67,-0.8
40.103,-1.54,-2.55,-0.8
40.113,-1.12,-2.45,-0.58
40.123,-0.53,-2.3,-0.23
40.133,-0.01,-1.78,0.22
40.143,0.29,-1.16,0.63
40.153,0.49,-0.83,0.93
40.164,0.62,-0.66,1.26
40.173,0.58,-0.58,1.57
40.184,0.31,-0.66,1.85
40.194,-0.21,-0.92,2.04
40.204,-0.89,-1.31,2.06
40.214,-1.54,-1.78,2.02
40.224,-1.87,-1.99,2.02
40.234,-1.48,-1.59,1.85
40.244,-1.11,-0.7,1.58
40.254,-1.2,0.08,1.3
40.264,-1.44,0.58,0.81
40.274,-1.69,1.09,0.42
40.284,-1.87,1.6,0.38
40.294,-1.79,2.14,0.7
40.305,-1.45,2.78,1.19
40.315,-0.92,3.3,1.81
40.325,-0.11,3.7,2.52
40.335,0.61,3.88,3.19
40.345,1.03,3.73,3.55
40.355,1.22,3.21,3.74
40.365,1.12,2.54,3.77
40.375,0.89,1.94,3.7
40.385,0.54,1.35,3.62
40.395,-0.01,0.86,3.43
40.405,-0.49,0.63,3.21
40.415,-0.72,0.47,2.9
40.425,-0.97,0.19,2.51
40.436,-1.1,0.05,2.18
40.446,-1.08,-0.02,1.81
40.456,-1.01,-0.21,1.44
40.466,-0.97,-0.47,1.03
40.476,-1.01,-0.69,0.68
40.486,-1.04,-0.84,0.39
40.496,-1.13,-0.98,0.19
40.506,-1.18,-1.04,0.04
40.516,-1.26,-1.08,0.02
40.526,-1.36,-0.97,0.07
40.536,-1.35,-0.76,0.19
40.546,-1.34,-0.66,0.37
40.556,-1.28,-0.67,0.57
40.567,-1.11,-0.64,0.86
40.577,-1.11,-0.6,1.09
40.587,-1.08,-0.54,1.2
40.597,-1.01,-0.46,1.33
40.607,-1.01,-0.39,1.45
40.617,-1.08,-0.33,1.47
40.627,-1.17,-0.33,1.45
40.637,-1.3,-0.29,1.44
40.647,-1.36,-0.22,1.48
40.657,-1.26,-0.28,1.61
40.667,-1.05,-0.51,1.82
40.677,-0.76,-0.88,2.09
40.688,-0.51,-1.31,2.23
40.698,-0.29,-1.79,2.09
40.708,-0.38,-2.23,1.52
40.718,-0.77,-2.5,0.57
40.728,-1.38,-2.57,-0.57
40.738,-1.97,-2.47,-1.59
40.748,-2.54,-2.09,-2.26
40.758,-3.12,-1.62,-2.49
40.768,-3.62,-1.21,-2.54
40.778,-3.96,-0.79,-2.17
40.788,-4.27,-0.18,-1.59
40.798,-4.37,0.49,-0.9
40.808,-4.26,1.06,-0.04
40.818,-4.27,1.44,0.75
40.829,-4.43,1.62,1.52
40.839,-4.42,1.7,2.36
40.849,-4.15,1.8,3.16
40.859,-3.68,1.97,3.94
40.869,-3.15,2.15,4.63
40.879,-2.61,2.28,5.23
40.889,-2.02,2.29,5.7
40.899,-1.39,2.19,5.79
40.909,-0.88,2.13,5.47
40.919,-0.58,2.0,4.7
40.929,-0.43,1.73,3.66
40.939,-0.3,1.49,2.69
40.95,-0.26,1.22,1.83
40.96,-0.27,0.91,1.21
40.97,-0.26,0.57,1.04
40.98,-0.06,0.19,1.08
40.99,0.25,-0.16,1.27
41.0,0.47,-0.45,1.29
41.01,0.6,-0.71,1.22
41.02,0.62,-0.97,1.09
41.03,0.59,-1.2,0.85
41.04,0.58,-1.27,0.49
41.05,0.46,-1.23,0.12
41.06,0.4,-1.22,-0.27
41.07,0.41,-1.18,-0.47
41.08,0.4,-1.08,-0.45
41.091,0.49,-1.01,-0.28
41.101,0.6,-1.02,-0.07
41.111,0.59,-1.17,0.14
41.121,0.57,-1.32,0.34
41.131,0.64,-1.39,0.47
41.141,0.76,-1.46,0.51
41.151,0.99,-1.46,0.46
41.161,1.2,-1.35,0.37
41.171,1.33,-1.26,0.22
41.181,1.55,-1.11,-0.09
41.191,1.75,-0.82,-0.38
41.201,1.84,-0.53,-0.56
41.212,2.04,-0.38,-0.65
41.222,2.36,-0.36,-0.47
41.232,2.62,-0.46,-0.31
41.242,2.79,-0.51,-0.21
41.252,2.88,-0.54,-0.14
41.262,2.74,-0.56,-0.23
41.272,2.36,-0.53,-0.46
41.282,1.82,-0.33,-0.79
41.292,1.22,0.0,-1.1
41.302,0.85,0.27,-1.16
41.312,0.5,0.46,-1.12
41.322,0.15,0.55,-0.89
41.333,-0.06,0.57,-0.59
41.342,-0.11,0.53,-0.22
41.353,-0.04,0.44,0.09
41.363,0.16,0.35,0.3
41.373,0.32,0.32,0.29
41.383,0.5,0.29,0.22
41.393,0.76,0.32,0.06
41.403,0.89,0.4,-0.27
41.413,1.02,0.48,-0.66
41.423,1.23,0.54,-1.01
41.433,1.42,0.54,-1.19
41.443,1.62,0.62,-1.29
41.454,1.68,0.71,-1.25
41.463,1.7,0.7,-1.05
41.474,1.72,0.61,-0.88
41.484,1.76,0.55,-0.77
41.494,1.73,0.46,-0.74
41.504,1.7,0.34,-0.81
41.514,1.63,0.24,-1.0
41.524,1.7,0.27,-1.15
41.534,1.83,0.33,-1.25
41.544,1.87,0.33,-1.16
41.554,2.0,0.34,-1.05
41.564,2.25,0.41,-0.89
41.575,2.3,0.35,-0.75
41.585,2.41,0.19,-0.68
41.595,2.61,0.01,-0.71
41.605,2.7,-0.09,-0.77
41.615,2.71,-0.23,-0.89
41.625,2.76,-0.39,-1.15
41.635,2.96,-0.53,-1.43
41.645,3.15,-0.67,-1.68
41.655,3.39,-0.83,-1.95
41.665,3.64,-1.05,-2.18
41.675,3.73,-1.27,-2.34
41.685,3.67,-1.48,-2.46
41.695,3.54,-1.67,-2.37
41.705,3.58,-1.78,-2.12
41.716,3.55,-1.73,-1.76
41.726,3.43,-1.6,-1.34
41.736,3.37,-1.62,-0.95
41.746,3.29,-1.6,-0.71
41.756,3.13,-1.48,-0.49
41.766,2.93,-1.33,-0.39
41.776,2.79,-1.07,-0.22
41.786,2.79,-0.81,0.09
41.796,2.71,-0.56,0.48
41.806,2.72,-0.23,0.87
41.816,2.78,0.11,1.24
41.826,2.69,0.43,1.46
41.837,2.58,0.71,1.48
41.846,2.49,0.96,1.35
41.857,2.4,1.13,1.21
41.867,2.23,1.27,0.97
41.877,2.09,1.4,0.67
41.887,1.87,1.46,0.52
41.897,1.65,1.37,0.42
41.907,1.45,1.17,0.35
41.917,1.18,0.86,0.31
41.927,0.93,0.6,0.28
41.937,0.76,0.38,0.21
41.947,0.63,0.06,0.11
41.957,0.46,-0.22,-0.01
41.967,0.21,-0.5,-0.13
41.978,0.08,-0.73,-0.17
41.988,0.05,-0.76,-0.23
41.998,0.01,-0.64,-0.21
42.008,-0.13,-0.65,-0.23
42.018,-0.13,-0.73,-0.17
42.028,-0.06,-0.76,0.01
42.038,-0.08,-0.83,0.24
42.048,-0.15,-0.92,0.25
42.058,-0.34,-0.99,0.06
42.068,-0.7,-1.0,-0.26
42.078,-0.94,-0.99,-0.49
42.088,-1.07,-0.9,-0.52
42.099,-1.29,-0.76,-0.51
42.108,-1.41,-0.62,-0.43
42.119,-1.41,-0.57,-0.42
42.129,-1.32,-0.38,-0.5
42.139,-1.39,-0.17,-0.74
42.149,-1.64,-0.02,-1.0
42.159,-1.83,0.11,-1.18
42.169,-1.87,0.23,-1.08
42.179,-1.66,0.33,-0.6
42.189,-1.47,0.38,0.1
42.199,-1.14,0.38,0.56
42.209,-0.69,0.47,0.7
42.22,-0.4,0.69,0.77
42.229,-0.2,0.75,0.64
42.24,-0.17,0.67,0.26
42.25,-0.25,0.72,-0.2
42.26,-0.2,0.75,-0.61
42.27,-0.2,0.64,-0.93
42.28,-0.52,0.49,-1.05
42.29,-0.97,0.23,-0.92
42.3,-1.26,-0.07,-0.55
42.31,-1.47,-0.23,-0.13
42.32,-1.75,-0.4,0.26
42.33,-1.95,-0.47,0.77
42.34,-2.03,-0.51,1.31
42.35,-1.96,-0.52,1.77
42.36,-1.78,-0.38,2.19
42.371,-1.51,-0.17,2.49
42.381,-1.32,-0.03,2.54
42.391,-1.24,0.16,2.5
42.401,-1.17,0.3,2.39
42.411,-0.95,0.47,2.29
42.421,-0.74,0.71,2.22
42.431,-0.61,0.87,2.17
42.441,-0.48,1.02,2.05
42.451,-0.42,1.24,1.93
42.461,-0.39,1.37,1.85
42.471,-0.32,1.31,1.75
42.482,-0.39,1.23,1.69
42.491,-0.52,1.12,1.66
42.502,-0.71,0.97,1.64
42.512,-0.95,0.76,1.63
42.522,-1.26,0.59,1.62
42.532,-1.62,0.45,1.67
42.542,-1.79,0.4,1.89
42.552,-1.85,0.4,2.28
42.562,-1.84,0.39,2.7
42.572,-1.81,0.36,3.04
42.582,-1.81,0.37,3.24
42.592,-1.85,0.38,3.24
42.603,-1.82,0.38,3.02
42.612,-1.73,0.39,2.62
42.623,-1.77,0.37,2.16
42.633,-1.87,0.3,1.75
42.643,-1.96,0.16,1.37
42.653,-2.01,-0.02,1.19
42.663,-2.02,-0.36,1.07
42.673,-2.07,-0.77,0.88
42.683,-2.33,-1.08,0.5
42.693,-2.75,-1.28,0.06
42.703,-3.22,-1.34,-0.25
42.713,-3.52,-1.21,-0.23
42.723,-3.58,-0.97,0.01
42.733,-3.44,-0.59,0.22
42.744,-3.44,-0.08,0.2
42.754,-3.6,0.56,-0.09
42.764,-3.68,1.15,-0.48
42.774,-3.69,1.68,-0.9
42.784,-3.67,2.2,-1.12
42.794,-3.54,2.48,-0.76
42.804,-3.2,2.57,0.13
42.814,-2.67,2.49,1.36
42.824,-2.23,2.19,2.35
42.834,-1.9,1.65,3.08
42.844,-1.67,0.99,3.32
42.854,-1.9,0.5,3.29
42.865,-2.21,0.27,3.21
42.875,-2.4,0.56,3.44
42.885,-2.06,1.2,4.11
42.895,-1.24,1.64,4.77
42.905,-0.5,1.65,5.13
42.915,0.07,1.43,5.01
42.925,0.33,1.07,4.47
42.935,0.39,0.57,3.67
42.945,0.3,0.03,2.79
42.955,0.09,-0.37,2.07
42.965,-0.08,-0.52,1.72
42.975,0.01,-0.46,1.77
42.986,0.34,-0.38,2.08
42.996,0.73,-0.24,2.24
43.006,1.06,-0.24,2.23
43.016,1.09,-0.37,1.89
43.026,0.84,-0.5,1.36
43.036,0.55,-0.56,0.94
43.046,0.37,-0.66,0.89
43.056,0.2,-0.64,1.02
43.066,0.01,-0.56,1.15
43.076,-0.12,-0.53,1.21
43.086,-0.3,-0.47,1.4
43.096,-0.25,-0.48,1.61
43.107,0.03,-0.47,1.85
43.116,0.58,-0.55,2.02
43.127,1.21,-0.81,2.0
43.137,1.64,-1.21,1.79
43.147,1.79,-1.64,1.47
43.157,1.66,-2.04,0.97
43.167,1.3,-2.25,0.28
43.177,0.77,-2.34,-0.35
43.187,0.25,-2.28,-0.78
43.197,-0.18,-2.07,-0.96
43.207,-0.49,-1.66,-1.0
43.217,-0.52,-1.03,-0.86
43.227,-0.32,-0.41,-0.88
43.237,-0.12,0.08,-0.92
43.248,0.19,0.62,-0.9
43.258,0.55,1.1,-0.83
43.268,0.71,1.39,-0.89
43.278,0.79,1.57,-1.09
43.288,0.77,1.58,-1.22
43.298,0.66,1.47,-1.19
43.308,0.71,1.5,-0.94
43.318,0.63,1.48,-0.63
43.328,0.52,1.34,-0.37
43.338,0.52,1.19,-0.1
43.348,0.65,1.06,0.16
43.358,0.96,0.9,0.47
43.369,1.3,0.8,0.75
43.379,1.61,0.73,0.83
43.389,1.75,0.69,0.76
43.399,1.74,0.71,0.53
43.409,1.63,0.72,0.2
43.419,1.41,0.68,-0.13
43.429,1.2,0.73,-0.3
43.439,1.07,0.74,-0.19
43.449,0.97,0.62,0.02
43.459,0.78,0.37,0.17
43.47,0.56,0.15,0.28
43.479,0.41,-0.03,0.37
43.49,0.41,-0.18,0.42
43.499,0.47,-0.28,0.54
43.51,0.55,-0.37,0.61
43.52,0.57,-0.51,0.57
43.53,0.61,-0.65,0.58
43.54,0.57,-0.8,0.63
43.55,0.59,-1.01,0.69
43.56,0.71,-1.18,0.8
43.57,0.86,-1.42,0.95
43.58,1.06,-1.72,1.1
43.59,1.19,-2.06,1.21
43.6,1.38,-2.42,1.25
43.61,1.7,-2.76,1.36
43.62,2.03,-2.98,1.62
43.631,2.29,-3.16,1.88
43.641,2.49,-3.32,1.93
43.651,2.51,-3.38,1.77
43.661,2.44,-3.27,1.39
43.671,2.35,-3.11,0.85
43.681,2.19,-2.81,0.27
43.691,2.04,-2.38,-0.14
43.701,2.04,-1.93,-0.52
43.711,2.05,-1.57,-0.78
43.721,2.28,-1.0,-0.95
43.731,2.5,-0.37,-1.12
43.741,2.74,0.12,-1.26
43.751,2.93,0.48,-1.46
43.761,2.81,0.65,-1.63
43.772,2.6,0.74,-1.78
43.782,2.26,0.89,-1.84
43.792,1.71,0.91,-1.76
43.802,1.23,0.91,-1.57
43.812,0.87,1.01,-1.3
43.822,0.79,1.08,-0.97
43.832,1.06,1.21,-0.64
43.842,1.42,1.44,-0.32
43.852,1.76,1.52,-0.19
43.862,2.08,1.51,-0.33
43.873,2.27,1.48,-0.59
43.882,2.47,1.41,-0.85
43.893,2.58,1.32,-0.99
43.903,2.52,1.12,-1.12
43.913,2.34,0.73,-1.33
43.923,2.02,0.37,-1.51
43.933,1.59,0.0,-1.68
43.943,1.29,-0.35,-1.82
43.953,1.09,-0.57,-1.87
43.963,1.03,-0.59,-1.88
43.973,1.05,-0.51,-1.8
43.983,1.08,-0.34,-1.77
43.993,1.12,-0.19,-1.78
44.003,1.09,-0.16,-1.75
44.014,1.01,-0.16,-1.61
44.023,0.95,-0.11,-1.32
44.034,0.87,0.04,-0.94
44.044,0.77,0.1,-0.62
44.054,0.68,0.07,-0.35
44.064,0.47,-0.12,-0.23
44.074,0.06,-0.37,-0.23
44.084,-0.37,-0.57,-0.25
44.094,-0.67,-0.68,-0.05
44.104,-0.76,-0.75,0.21
44.114,-0.59,-0.62,0.56
44.124,-0.21,-0.28,0.69
44.134,0.17,0.02,0.51
44.144,0.32,0.11,-0.03
44.155,0.33,0.05,-0.8
44.165,0.22,-0.06,-1.71
44.175,-0.09,-0.09,-2.42
44.185,-0.52,-0.12,-2.89
44.195,-0.77,-0.26,-2.93
44.205,-0.85,-0.34,-2.58
44.215,-0.91,-0.25,-1.88
44.225,-0.84,-0.14,-1.05
44.235,-0.79,-0.02,-0.36
44.245,-0.83,0.13,-0.05
44.255,-1.14,0.26,-0.12
44.265,-1.51,0.28,-0.23
44.276,-1.8,0.31,-0.12
44.286,-1.96,0.39,0.22
44.296,-2.06,0.49,0.83
44.306,-2.01,0.56,1.74
44.316,-1.54,0.45,2.7
44.326,-1.07,0.33,3.63
44.336,-0.81,0.26,4.57
44.346,-0.58,0.11,5.13
44.356,-0.45,0.02,5.29
44.366,-0.32,0.11,5.14
44.376,-0.16,0.24,4.7
44.386,0.04,0.37,4.09
44.396,0.26,0.64,3.5
44.406,0.58,0.89,3.07
44.417,0.87,1.04,2.7
44.427,1.06,1.1,2.29
44.437,1.18,1.05,1.75
44.447,1.2,0.93,1.26
44.457,1.08,0.83,0.86
44.467,0.85,0.68,0.58
44.477,0.7,0.51,0.56
44.487,0.69,0.4,0.78
44.497,0.51,0.28,1.07
44.507,0.27,-0.03,1.22
44.518,0.01,-0.36,1.28
44.527,-0.35,-0.63,1.4
44.538,-0.57,-0.93,1.51
44.548,-0.77,-1.21,1.6
44.558,-1.11,-1.53,1.64
44.568,-1.53,-1.83,1.49
44.578,-2.01,-2.03,1.19
44.588,-2.36,-2.12,0.86
44.598,-2.58,-2.17,0.62
44.608,-2.88,-2.1,0.33
44.618,-3.15,-2.02,0.01
44.628,-3.34,-1.96,-0.34
44.638,-3.52,-1.77,-0.59
44.648,-3.5,-1.57,-0.76
44.659,-3.37,-1.31,-1.02
44.669,-3.4,-0.89,-1.39
44.679,-3.57,-0.51,-1.78
44.689,-3.68,-0.18,-2.04
44.699,-3.83,0.23,-1.98
44.709,-4.18,0.64,-1.71
44.719,-4.59,1.06,-1.22
44.729,-4.84,1.54,-0.43
44.739,-4.65,1.89,0.85
44.749,-4.21,2.16,2.36
44.759,-3.64,2.36,3.73
44.769,-3.06,2.48,4.88
44.779,-2.74,2.7,5.94
44.789,-2.01,2.93,7.0
44.8,-1.02,2.96,7.74
44.81,-0.17,2.9,8.27
44.82,0.71,2.89,8.35
44.83,1.42,2.81,7.85
44.84,1.76,2.6,6.86
44.85,1.83,2.33,5.7
44.86,1.69,2.15,4.72
44.87,1.57,1.93,4.2
44.88,1.5,1.55,3.83
44.89,1.54,1.17,3.5
44.9,1.37,0.79,2.98
44.91,1.18,0.35,2.32
44.921,1.07,-0.17,1.61
44.932,1.13,-0.4,0.85
44.941,1.26,-0.08,0.13
44.951,1.09,0.25,-0.72
44.961,0.76,0.21,-1.24
44.971,0.55,0.14,-1.38
44.981,0.59,0.09,-0.96
44.991,0.89,-0.13,-0.37
45.001,1.14,-0.48,0.05
45.011,1.24,-0.83,0.55
45.021,1.36,-1.0,0.96
45.031,1.46,-1.08,1.38
