timestamp,ax,ay,az
157.269,10.17,-7.15,0.64
157.279,11.81,-7.25,0.65
157.289,13.56,-7.28,1.26
157.299,15.53,-7.15,2.13
157.309,17.82,-6.57,2.63
157.319,19.72,-5.77,2.85
157.329,21.42,-5.1,2.92
157.339,23.72,-4.03,3.1
157.35,27.42,-2.16,3.05
157.36,32.09,0.03,1.88
157.37,36.55,2.23,-0.59
157.38,39.06,4.32,-3.48
157.39,38.34,5.23,-4.94
157.4,35.64,5.13,-4.2
157.41,32.12,4.8,-2.99
157.42,28.87,4.28,-2.89
157.43,26.25,2.92,-3.59
157.44,24.16,0.6,-5.08
157.45,23.47,-2.01,-7.87
157.46,24.27,-3.01,-13.51
157.471,21.36,-3.65,-20.58
157.481,14.24,-3.41,-25.22
157.491,8.0,-2.39,-25.07
157.501,5.53,-1.62,-20.6
157.511,5.78,-1.49,-14.39
157.521,5.25,-1.54,-8.95
157.531,3.72,-1.43,-5.56
157.541,1.92,-1.72,-3.95
157.551,0.79,-2.36,-3.97
157.561,-0.02,-2.19,-5.82
157.571,-2.06,0.26,-8.48
157.581,-3.16,3.01,-11.45
157.591,-2.09,4.07,-13.94
157.601,-0.85,4.3,-14.42
157.612,0.24,4.09,-13.75
157.622,1.27,3.88,-13.24
157.632,1.55,4.6,-12.91
157.642,1.31,5.79,-12.75
157.652,1.03,6.83,-12.63
157.662,0.76,6.89,-12.65
157.672,0.27,6.02,-12.9
157.682,-0.89,5.3,-12.89
157.692,-1.97,5.01,-12.6
157.702,-2.55,5.16,-11.96
157.713,-2.52,5.25,-11.11
157.722,-2.59,4.76,-9.97
157.732,-3.09,3.76,-8.43
157.742,-3.45,2.7,-6.64
157.753,-3.51,2.0,-4.88
157.763,-3.42,1.63,-3.32
157.773,-3.07,1.33,-2.06
157.783,-2.66,1.02,-1.18
157.793,-2.29,0.59,-0.63
157.803,-1.97,0.1,-0.47
157.813,-1.8,-0.41,-0.57
157.823,-1.75,-0.97,-0.78
157.833,-1.56,-1.57,-1.07
157.843,-1.27,-2.12,-1.34
157.853,-1.0,-2.54,-1.54
157.863,-0.78,-2.75,-1.58
157.874,-0.58,-2.75,-1.48
157.883,-0.12,-2.76,-1.28
157.894,0.55,-2.95,-1.05
157.904,1.18,-3.39,-0.75
157.914,1.59,-4.13,-0.27
157.924,1.67,-4.91,0.46
157.934,1.39,-5.69,1.22
157.944,1.07,-6.43,1.9
157.954,0.35,-6.99,1.97
157.964,-0.73,-7.31,1.16
157.974,-2.72,-7.46,0.47
157.984,-4.96,-6.61,1.27
157.994,-6.28,-5.21,1.38
158.005,-6.89,-4.18,-0.38
158.015,-7.05,-3.44,-3.96
158.025,-6.91,-2.62,-8.0
158.035,-6.57,-1.61,-11.05
158.045,-5.67,0.53,-12.6
158.055,-3.88,3.64,-14.1
158.065,-2.17,6.5,-16.06
158.075,-1.03,8.38,-17.33
158.085,-0.29,9.62,-16.83
158.095,0.28,10.09,-14.51
158.105,0.7,9.63,-10.96
158.115,1.32,8.9,-7.44
158.125,2.12,8.35,-4.83
158.136,2.74,8.21,-2.93
158.146,2.95,8.06,-2.07
158.156,2.74,7.2,-1.93
158.166,1.73,5.77,-1.32
158.176,0.43,4.5,-0.08
158.186,-0.4,3.35,1.19
158.196,-0.89,2.32,2.04
158.206,-0.86,1.54,2.41
158.216,-0.07,1.23,2.35
158.226,1.02,1.24,2.4
158.236,1.65,1.49,2.67
158.246,1.43,1.88,2.75
158.256,1.06,2.35,3.1
158.266,1.32,2.99,3.61
158.277,2.11,3.72,3.71
158.287,3.1,4.27,3.4
158.297,4.31,4.47,2.96
158.307,5.3,4.39,3.08
158.317,5.54,4.24,3.92
158.327,5.99,4.48,4.86
158.337,6.36,4.83,5.16
158.347,6.23,4.85,4.93
158.357,6.34,4.87,4.56
158.367,6.58,4.82,4.0
158.378,6.85,4.61,3.52
158.387,6.86,4.3,3.44
158.398,6.45,3.89,3.51
158.407,5.91,3.31,3.61
158.418,5.35,2.48,3.75
158.428,4.4,1.58,4.09
158.438,3.17,0.8,4.56
158.448,2.16,0.03,5.14
158.458,1.39,-0.66,5.88
158.468,1.11,-1.25,6.73
158.478,1.05,-1.85,7.13
158.488,0.69,-2.48,7.3
158.498,0.35,-3.14,7.51
158.508,0.29,-4.08,7.81
158.519,0.47,-5.12,8.23
158.528,0.53,-5.81,8.81
158.539,0.7,-6.29,9.3
158.549,1.26,-6.72,9.64
158.559,2.21,-7.28,9.85
158.569,3.34,-8.07,10.03
158.579,4.28,-8.86,10.1
158.589,4.9,-9.47,9.99
158.599,5.29,-10.11,9.69
158.609,5.37,-10.98,9.36
158.62,5.09,-12.32,9.61
158.629,3.61,-13.43,7.19
158.64,3.23,-14.69,4.39
158.649,3.88,-16.33,2.19
158.66,3.42,-17.89,-3.17
158.67,1.92,-19.55,-9.67
158.68,1.85,-20.57,-15.05
158.69,1.87,-20.93,-20.21
158.7,2.44,-20.29,-24.32
158.71,3.05,-19.05,-27.27
158.72,3.13,-17.94,-28.67
158.73,2.44,-16.7,-28.18
158.74,1.77,-15.26,-26.06
158.75,1.37,-14.05,-22.95
158.761,1.34,-12.83,-19.11
158.771,1.67,-11.32,-15.05
158.781,2.16,-9.5,-11.59
158.791,2.85,-7.4,-10.03
158.801,3.05,-4.82,-9.46
158.811,3.38,-2.35,-10.44
158.821,3.58,0.57,-11.82
158.831,4.15,3.83,-11.85
158.841,5.47,6.85,-11.41
158.851,6.27,9.45,-11.03
158.861,6.33,11.41,-9.62
158.871,6.54,12.73,-6.93
158.881,6.69,13.62,-3.39
158.891,6.52,14.17,0.06
158.902,6.44,14.56,2.6
158.912,6.03,15.1,3.62
158.922,5.52,15.66,3.03
158.932,4.96,16.09,1.58
158.942,4.39,16.33,0.05
158.952,3.77,16.49,-0.95
158.962,3.15,16.42,-1.21
158.972,2.56,16.08,-1.0
158.982,2.11,15.43,-0.34
158.992,1.7,14.49,0.41
159.002,1.16,13.58,1.0
159.012,0.72,13.15,1.22
159.023,0.76,12.9,1.02
159.032,1.06,12.76,0.43
159.043,1.7,13.03,-0.74
159.053,2.83,13.75,-2.5
159.063,4.17,14.69,-4.23
159.073,5.91,15.17,-4.88
159.083,8.54,15.27,-4.95
159.093,9.74,15.27,-5.61
159.103,11.34,14.78,-5.77
159.113,13.33,13.83,-5.84
159.123,14.66,12.28,-7.08
159.134,16.18,10.16,-8.96
159.144,17.12,7.16,-10.59
159.154,17.68,3.15,-11.2
159.164,18.16,-0.75,-10.93
159.174,19.14,-4.02,-10.25
159.184,19.79,-6.9,-9.49
159.194,19.73,-9.03,-8.27
159.204,19.27,-11.08,-6.07
159.214,18.69,-12.77,-4.53
159.224,17.7,-13.94,-4.98
159.234,16.94,-14.87,-6.72
159.244,15.91,-14.77,-9.33
159.254,14.88,-14.69,-11.55
159.265,13.39,-14.58,-13.26
159.275,11.27,-14.07,-13.91
159.285,9.77,-13.07,-14.58
159.295,9.42,-12.17,-14.74
159.305,10.05,-11.3,-13.8
159.315,11.28,-10.59,-11.78
159.325,13.0,-10.26,-9.24
159.335,14.67,-10.07,-6.45
159.345,15.65,-10.09,-3.99
159.355,15.34,-10.09,-1.86
159.365,14.43,-10.09,0.22
159.375,13.49,-10.09,1.64
159.385,12.4,-9.77,2.11
159.395,11.28,-9.25,2.21
159.405,10.71,-8.69,1.94
159.417,10.13,-8.39,1.42
159.426,9.26,-8.59,1.01
159.435,8.61,-9.13,0.48
159.446,8.91,-9.69,0.03
159.456,9.88,-10.01,0.42
159.466,10.99,-9.94,1.27
159.476,12.25,-9.68,2.01
159.486,13.49,-9.39,2.36
159.496,14.65,-8.7,2.31
159.506,15.47,-7.85,2.13
159.516,15.94,-7.24,1.91
159.526,16.32,-6.95,1.81
159.536,16.54,-6.73,2.29
159.547,16.41,-6.38,3.5
159.557,16.12,-6.18,4.98
159.567,15.81,-6.1,6.07
159.577,15.61,-6.29,6.96
159.587,15.53,-6.63,8.17
159.597,15.37,-6.67,9.15
159.607,15.11,-6.56,9.95
159.617,14.79,-6.25,10.64
159.627,14.76,-5.78,11.17
159.637,14.9,-5.59,11.53
159.647,15.27,-5.4,11.72
159.657,16.07,-4.96,11.82
159.667,17.0,-4.5,12.04
159.677,17.55,-3.61,11.97
159.688,17.37,-2.33,12.68
159.698,17.01,-1.28,13.71
159.708,15.24,-0.45,13.18
159.718,12.82,-0.01,13.59
159.728,10.5,-0.14,14.55
159.738,7.58,-0.13,15.05
159.748,4.78,0.64,15.06
159.758,1.26,3.26,15.12
159.768,-3.87,8.42,14.93
159.778,-7.74,13.29,14.96
159.789,-7.03,17.71,14.51
159.799,-2.59,21.94,12.28
159.809,4.29,25.03,8.35
159.819,10.78,26.14,3.89
159.829,15.65,24.52,-0.06
159.839,18.75,21.17,-3.42
159.849,18.56,17.39,-3.95
159.859,16.73,14.06,-1.86
159.869,15.41,13.08,-0.52
159.879,16.84,14.26,-2.42
159.889,18.58,17.13,-5.14
159.899,19.0,19.96,-8.76
159.91,17.46,19.29,-10.85
159.92,14.98,17.0,-11.42
159.93,12.2,15.15,-11.07
159.939,9.45,13.49,-10.69
159.95,6.72,11.59,-11.13
159.96,4.59,9.95,-11.44
159.97,3.31,8.31,-10.51
159.98,2.95,6.62,-9.03
159.99,2.79,4.88,-7.73
160.0,2.12,3.03,-7.02
160.01,0.83,1.56,-6.61
160.02,-0.66,0.33,-6.53
160.03,-1.6,-0.81,-6.31
160.04,-2.04,-1.82,-5.78
160.05,-2.31,-2.64,-5.18
160.06,-2.42,-3.37,-4.76
160.071,-2.29,-4.08,-4.36
160.081,-1.99,-4.46,-4.01
160.091,-1.62,-4.6,-3.9
160.101,-0.82,-4.68,-3.87
160.111,0.3,-4.57,-4.14
160.121,1.1,-4.34,-4.5
160.131,1.54,-4.23,-4.33
160.141,1.97,-4.26,-4.3
160.151,2.2,-4.43,-4.91
160.161,2.06,-4.47,-6.16
160.171,1.99,-4.21,-8.0
160.181,2.39,-3.68,-10.5
160.192,2.88,-3.16,-12.71
160.202,3.06,-2.67,-13.75
160.212,2.32,-2.33,-13.68
160.222,1.12,-1.95,-12.66
160.232,0.05,-2.03,-10.91
160.242,-1.78,-1.94,-8.79
160.252,-4.25,-0.88,-6.34
160.262,-6.0,0.61,-5.68
160.272,-6.8,2.2,-5.53
160.282,-4.81,5.44,-5.87
160.292,-0.66,11.28,-8.19
160.302,3.22,17.32,-10.34
160.313,6.95,21.14,-11.55
160.323,10.86,22.36,-9.91
160.333,15.16,23.46,-5.65
160.343,18.7,24.67,-2.67
160.353,20.78,24.48,-1.68
160.363,22.7,23.22,-0.62
160.373,24.59,21.52,1.15
160.383,24.86,18.92,2.7
160.393,23.03,14.73,4.39
160.403,20.61,9.87,6.2
160.413,18.39,5.11,8.41
160.423,17.17,1.36,10.94
160.433,17.02,-0.6,13.04
160.443,17.08,-1.68,14.59
160.454,17.01,-2.55,15.8
160.464,16.47,-3.78,15.51
160.474,15.59,-5.28,13.81
160.484,14.52,-6.37,12.09
160.494,13.01,-6.74,10.48
160.504,11.46,-7.27,8.89
160.514,10.22,-8.02,7.1
160.524,9.28,-7.94,5.5
160.534,8.73,-7.39,3.89
160.544,8.48,-6.9,2.61
160.554,8.23,-6.5,2.13
160.564,7.93,-6.09,2.16
160.575,7.52,-5.66,2.39
160.585,7.29,-5.35,2.67
160.595,7.38,-5.39,3.72
160.605,8.17,-5.76,5.57
160.615,7.81,-6.44,6.12
160.625,8.0,-6.99,6.43
160.635,8.3,-7.32,6.66
160.645,8.39,-7.08,6.15
160.655,9.02,-6.47,5.18
160.665,10.24,-6.21,4.16
160.675,11.58,-6.1,3.56
160.685,12.5,-5.87,3.66
160.696,13.37,-5.56,4.28
160.705,13.36,-4.64,5.02
160.716,13.16,-3.77,5.92
160.726,13.02,-3.12,6.19
160.736,12.05,-2.51,5.15
160.746,11.33,-2.94,3.33
160.756,10.34,-4.27,1.41
160.766,9.18,-5.45,-0.28
160.776,8.77,-6.27,-0.89
160.786,8.3,-6.75,-0.94
160.796,7.21,-7.17,-1.29
160.806,6.49,-7.6,-1.85
160.816,6.24,-7.53,-1.96
160.826,6.34,-7.19,-1.63
160.837,7.13,-6.76,-0.99
160.847,7.46,-6.31,0.05
160.857,7.94,-5.91,0.55
160.867,8.51,-5.91,0.49
160.877,8.97,-6.19,0.45
160.887,9.07,-6.36,0.3
160.897,8.86,-6.53,0.11
160.907,8.75,-6.81,0.16
160.917,9.15,-7.12,0.53
160.927,9.8,-7.34,0.35
160.937,9.89,-7.33,-0.28
160.947,9.79,-7.28,-0.85
160.957,9.74,-7.29,-1.55
160.967,9.15,-7.27,-2.18
160.978,8.85,-7.31,-2.34
160.988,8.97,-7.27,-2.64
160.998,8.72,-7.52,-2.79
161.008,8.8,-8.22,-2.79
161.018,9.28,-8.95,-3.2
161.028,9.6,-9.14,-4.72
161.038,9.92,-8.62,-7.65
161.048,9.88,-7.49,-10.83
161.059,9.98,-6.34,-13.21
161.069,10.08,-5.05,-14.97
161.079,9.89,-3.84,-15.93
161.089,9.46,-3.15,-15.66
161.099,8.6,-2.73,-14.78
161.109,7.37,-2.39,-13.49
161.119,6.21,-1.97,-12.04
161.129,5.67,-0.95,-10.7
161.139,5.47,0.53,-9.48
161.149,4.95,1.47,-8.64
161.159,4.7,1.87,-7.99
161.169,4.51,2.36,-7.55
161.179,4.58,2.91,-7.01
161.189,4.82,3.51,-6.15
161.199,5.25,4.61,-5.17
161.209,5.88,5.75,-4.24
161.22,5.74,6.87,-3.73
161.229,5.12,7.88,-3.59
161.24,4.97,8.54,-3.2
161.25,4.61,9.11,-2.53
161.26,4.35,9.46,-1.45
161.27,4.57,10.04,-0.5
161.28,4.64,11.15,0.32
161.29,5.13,12.41,1.19
161.3,5.77,13.52,1.7
161.31,6.0,14.58,1.83
161.32,5.84,15.29,1.79
161.33,5.6,15.49,2.04
161.341,4.74,15.15,2.75
161.35,3.6,14.5,3.31
161.361,2.25,13.8,3.43
161.37,0.77,13.0,3.27
161.381,-0.46,12.07,3.24
161.391,-1.37,11.08,3.3
161.401,-2.12,9.99,3.5
161.411,-2.64,8.76,3.81
161.421,-2.77,7.55,3.91
161.431,-2.65,6.39,3.74
161.441,-2.48,5.52,3.32
161.451,-2.1,5.08,2.38
161.461,-1.2,5.19,0.71
161.471,-0.01,6.08,-1.25
161.482,1.41,6.78,-3.07
161.492,3.17,6.96,-4.23
161.502,5.17,6.65,-4.39
161.512,7.46,5.93,-4.43
161.522,10.22,4.85,-4.7
161.532,11.72,3.12,-4.92
161.542,12.25,1.12,-6.11
161.552,11.56,-0.68,-7.96
161.562,10.4,-3.06,-10.0
161.572,9.51,-5.59,-12.75
161.582,8.2,-7.12,-14.59
161.592,6.93,-7.12,-15.51
161.603,7.51,-5.76,-16.14
161.613,10.5,-4.31,-15.78
161.623,14.17,-3.1,-13.98
161.633,16.05,-2.22,-11.55
161.643,16.71,-1.85,-10.31
161.653,16.05,-2.57,-9.65
161.663,14.24,-4.21,-9.8
161.673,12.32,-6.22,-10.15
161.683,11.84,-8.18,-10.17
161.693,12.08,-9.83,-8.54
161.703,12.65,-10.39,-6.02
161.713,13.61,-10.27,-3.93
161.723,14.28,-10.18,-2.35
161.733,14.34,-9.98,-1.13
161.744,14.07,-9.89,-0.43
161.754,13.66,-9.93,-0.14
161.764,13.55,-9.87,-0.18
161.774,14.16,-9.57,-0.36
161.784,14.88,-8.85,-0.64
161.794,15.25,-8.08,-0.3
161.804,15.19,-7.79,0.44
161.814,14.51,-7.97,0.9
161.824,13.5,-8.12,0.79
161.834,12.3,-8.25,0.59
161.844,11.43,-8.51,0.34
161.854,11.05,-8.95,0.23
161.865,10.83,-9.45,0.2
161.875,10.71,-9.98,0.32
161.885,10.99,-10.28,0.6
161.895,10.88,-10.75,1.14
161.905,10.84,-10.8,1.7
161.915,10.49,-10.03,1.37
161.925,9.32,-9.65,1.79
161.935,8.65,-9.68,2.72
161.945,9.12,-9.93,4.01
161.955,9.92,-10.24,5.17
161.965,10.59,-10.33,6.13
161.975,10.77,-10.16,6.71
161.985,10.37,-10.14,6.6
161.996,9.32,-10.46,6.21
162.006,7.57,-10.57,6.11
162.016,5.93,-10.05,6.32
162.026,5.32,-9.5,6.52
162.036,5.76,-8.96,7.12
162.046,7.03,-7.69,9.31
162.056,6.66,-5.44,8.09
162.066,6.09,-2.81,7.91
162.076,6.88,-0.49,8.98
162.086,6.16,1.16,8.76
162.096,5.04,2.16,8.4
162.106,3.81,2.32,7.74
162.116,3.22,2.09,7.16
162.127,3.31,2.32,7.05
162.136,4.41,2.76,7.5
162.147,5.05,3.89,8.16
162.157,5.11,5.85,8.69
162.167,5.69,7.81,8.17
162.177,6.4,9.59,6.59
162.187,7.16,11.18,4.8
162.197,7.94,12.13,3.09
162.207,9.44,12.74,1.54
162.217,11.34,12.72,0.72
162.227,13.06,12.02,0.71
162.237,15.29,10.94,0.69
162.248,17.92,10.22,0.2
162.258,19.79,10.54,-0.44
