timestamp,ax,ay,az
103.719,1.74,1.9,-0.26
103.729,1.34,1.83,-0.4
103.739,0.54,2.02,-1.05
103.749,-0.43,2.33,-2.06
103.759,-1.28,2.35,-2.94
103.769,-1.67,2.04,-3.55
103.779,-1.77,1.6,-3.62
103.789,-1.52,1.14,-3.02
103.8,-1.09,0.56,-2.18
103.809,-0.49,-0.07,-1.44
103.82,-0.14,-0.57,-0.93
103.83,-0.1,-0.8,-0.91
103.84,0.01,-0.67,-1.44
103.85,0.03,-0.32,-2.19
103.86,-0.1,0.03,-2.76
103.87,-0.27,0.17,-3.05
103.88,-0.37,0.12,-3.16
103.89,-0.28,-0.07,-3.01
103.9,-0.04,-0.18,-2.63
103.91,0.27,-0.24,-2.2
103.92,0.89,-0.25,-1.9
103.93,1.49,0.07,-1.86
103.941,1.54,0.59,-1.95
103.95,1.62,0.83,-2.06
103.961,1.92,0.73,-2.27
103.971,1.97,0.59,-2.55
103.981,1.9,0.53,-2.68
103.991,1.95,0.46,-2.5
104.001,2.05,0.32,-2.05
104.011,2.14,-0.02,-1.49
104.021,2.31,-0.47,-0.88
104.031,2.49,-0.81,-0.33
104.041,2.61,-1.03,0.09
104.051,2.67,-1.3,0.26
104.061,2.83,-1.6,0.23
104.071,2.86,-1.86,0.13
104.082,2.84,-1.97,0.05
104.092,2.83,-2.03,0.07
104.102,2.89,-2.23,0.14
104.112,3.31,-1.79,0.22
104.122,3.34,-1.67,0.08
104.132,3.25,-1.97,-0.03
104.142,3.46,-2.04,0.13
104.152,3.61,-2.2,0.57
104.162,3.55,-2.35,1.13
104.172,3.49,-2.16,1.47
104.182,3.5,-1.58,1.41
104.192,3.45,-0.84,1.07
104.203,3.34,-0.13,0.62
104.212,2.96,0.52,0.24
104.223,2.36,1.09,0.02
104.233,1.75,1.52,0.18
104.243,1.38,1.93,0.56
104.253,1.37,2.39,1.14
104.263,1.53,2.8,1.53
104.273,1.46,3.07,1.61
104.283,1.14,3.0,1.45
104.293,0.74,2.81,1.18
104.303,0.3,2.69,1.16
104.313,-0.09,2.5,1.47
104.323,-0.27,2.27,2.02
104.333,-0.32,2.07,2.52
104.344,-0.46,1.91,2.74
104.354,-0.51,1.63,2.53
104.364,-0.37,1.26,2.01
104.374,-0.28,0.92,1.42
104.384,-0.21,0.63,0.88
104.394,-0.14,0.32,0.42
104.404,-0.13,0.11,-0.04
104.414,-0.13,-0.13,-0.55
104.424,-0.21,-0.37,-0.97
104.434,-0.38,-0.56,-1.18
104.444,-0.58,-0.7,-1.24
104.454,-0.76,-0.84,-1.22
104.465,-0.83,-1.07,-1.04
104.475,-0.8,-1.25,-0.72
104.485,-0.64,-1.24,-0.51
104.495,-0.47,-1.1,-0.34
104.505,-0.28,-0.95,-0.4
104.515,-0.25,-0.84,-0.71
104.525,-0.4,-0.72,-1.0
104.535,-0.58,-0.73,-1.23
104.545,-0.71,-0.93,-1.39
104.555,-0.93,-1.2,-1.39
104.565,-1.24,-1.4,-1.11
104.575,-1.38,-1.57,-0.64
104.586,-1.03,-1.75,-0.18
104.596,-0.42,-1.76,0.15
104.606,0.12,-1.64,0.23
104.616,0.69,-1.57,0.02
104.626,1.25,-1.51,-0.35
104.636,1.69,-1.29,-0.71
104.646,1.93,-0.95,-0.96
104.656,1.95,-0.79,-1.09
104.666,1.95,-0.73,-1.12
104.676,1.68,-0.58,-0.95
104.686,1.36,-0.32,-0.54
104.696,0.98,-0.13,-0.23
104.707,0.39,-0.04,-0.05
104.717,-0.46,0.28,0.02
104.727,-1.21,0.74,-0.22
104.737,-2.03,1.09,-0.72
104.747,-2.81,1.46,-1.28
104.757,-3.33,2.02,-2.02
104.767,-3.57,2.57,-2.71
104.777,-3.46,3.04,-2.99
104.787,-2.97,3.62,-2.73
104.797,-2.05,3.94,-1.79
104.807,-0.87,3.82,-0.35
104.817,0.25,3.3,0.9
104.827,1.01,2.6,1.8
104.837,1.34,1.84,2.22
104.848,1.2,1.31,2.19
104.857,0.77,0.97,1.91
104.868,0.4,0.67,1.38
104.878,0.07,0.56,0.68
104.888,-0.28,0.6,0.04
104.898,-0.56,0.57,-0.5
104.908,-0.85,0.43,-0.68
104.918,-0.98,0.1,-0.6
104.928,-1.19,-0.38,-0.44
104.938,-1.5,-0.82,-0.31
104.948,-1.71,-1.13,-0.3
104.958,-1.88,-1.33,-0.53
104.969,-2.26,-1.47,-0.88
104.978,-2.93,-1.51,-1.33
104.989,-3.54,-1.54,-1.69
104.999,-3.88,-1.6,-1.84
105.009,-3.98,-1.65,-1.8
105.019,-4.02,-1.67,-1.61
105.029,-4.03,-1.66,-1.32
105.039,-3.87,-1.6,-0.76
105.049,-3.47,-1.53,-0.12
105.059,-3.02,-1.46,0.46
105.069,-2.61,-1.22,0.9
105.079,-2.25,-0.87,1.05
105.09,-1.8,-0.63,0.96
105.1,-1.34,-0.49,0.7
105.11,-0.85,-0.29,0.38
105.12,-0.5,-0.11,0.02
105.13,-0.42,-0.12,-0.53
105.14,-0.58,-0.18,-1.26
105.15,-0.9,-0.15,-1.92
105.16,-1.13,-0.16,-2.23
105.17,-1.26,-0.21,-2.1
105.18,-1.49,-0.11,-1.77
105.19,-1.76,0.07,-1.23
105.2,-1.96,0.49,-0.77
105.21,-2.43,1.07,-0.56
105.22,-2.98,1.72,-0.35
105.231,-3.25,2.59,-0.02
105.241,-3.3,3.49,0.34
105.251,-3.1,4.28,0.71
105.261,-2.67,4.68,1.15
105.271,-2.04,4.71,1.54
105.281,-1.4,4.54,1.94
105.291,-0.75,4.41,2.23
105.301,-0.19,4.19,2.17
105.311,0.11,3.83,1.81
105.321,0.27,3.49,1.34
105.331,0.22,3.07,0.9
105.341,-0.14,2.78,0.43
105.352,-0.72,2.66,0.09
105.361,-1.31,2.42,0.04
105.372,-1.62,1.94,0.18
105.382,-1.68,1.59,0.56
105.392,-1.87,1.29,0.91
105.402,-2.26,0.91,0.98
105.412,-2.52,0.44,0.89
105.422,-2.65,-0.07,0.76
105.432,-2.75,-0.4,0.53
105.442,-2.68,-0.63,0.08
105.452,-2.37,-0.87,-0.3
105.462,-2.11,-1.17,-0.34
105.473,-1.75,-1.57,-0.2
105.482,-1.49,-1.91,-0.04
105.493,-1.3,-2.21,0.03
105.503,-1.01,-2.56,0.05
105.513,-0.53,-2.84,0.26
105.523,0.07,-2.89,0.72
105.533,0.79,-2.9,1.2
105.543,1.7,-2.8,1.6
105.553,2.7,-2.53,1.9
105.563,3.62,-2.13,2.13
105.573,4.4,-1.84,2.2
105.583,5.0,-1.62,1.84
105.593,5.25,-1.7,1.22
105.603,5.1,-2.07,0.6
105.614,4.62,-2.41,0.1
105.624,4.07,-2.65,-0.28
105.634,3.36,-2.8,-0.44
105.644,2.43,-2.6,-0.22
105.654,1.68,-1.88,0.0
105.664,0.75,-0.75,-0.04
105.674,-0.61,0.35,-0.09
105.684,-1.86,0.93,-0.31
105.694,-2.72,1.15,-0.88
105.704,-3.28,1.21,-1.34
105.714,-3.56,1.23,-1.39
105.724,-3.49,1.2,-0.94
105.735,-2.8,1.29,-0.17
105.744,-1.58,1.43,0.74
105.755,-0.05,1.6,1.49
105.765,0.98,1.83,1.96
105.775,1.33,2.03,1.89
105.785,1.41,2.03,0.97
105.795,1.24,1.87,-0.23
105.805,0.83,1.57,-1.22
105.815,0.38,1.28,-2.09
105.825,0.14,1.03,-2.64
105.835,0.21,0.8,-2.72
105.845,0.46,0.48,-2.46
105.856,1.18,0.08,-1.94
105.865,1.88,0.05,-1.33
105.876,2.14,0.2,-0.86
105.886,2.51,0.27,-0.8
105.896,2.86,0.44,-1.09
105.906,2.68,0.5,-1.44
105.916,2.45,0.31,-1.65
105.926,2.29,-0.03,-1.76
105.936,2.29,-0.47,-1.75
105.946,2.16,-0.82,-1.67
105.956,2.12,-1.2,-1.68
105.966,2.3,-1.44,-1.58
105.976,2.45,-1.55,-1.4
105.986,2.63,-1.71,-1.11
105.997,2.96,-1.84,-0.78
106.007,3.46,-1.93,-0.39
106.017,4.09,-1.81,-0.06
106.027,4.65,-1.64,0.14
106.037,4.9,-1.6,0.17
106.047,5.01,-1.56,0.03
106.057,5.13,-1.67,-0.18
106.067,5.14,-1.85,-0.3
106.077,4.9,-1.95,-0.26
106.087,4.7,-2.03,-0.12
106.097,4.67,-2.1,0.11
106.107,4.77,-2.23,0.44
106.118,5.16,-2.26,0.88
106.127,5.67,-2.11,1.49
106.138,6.12,-2.2,2.25
106.148,6.64,-2.2,2.89
106.158,7.35,-1.67,3.19
106.168,7.86,-0.89,3.01
106.178,7.93,-0.26,2.25
106.188,7.82,0.31,1.15
106.198,7.37,0.55,0.09
106.208,6.12,0.68,-1.08
106.218,4.28,0.71,-2.25
106.228,2.33,0.84,-3.51
106.238,0.7,1.46,-4.02
106.248,0.02,2.47,-2.87
106.259,0.75,3.31,-0.09
106.269,2.01,3.72,2.91
106.279,2.8,3.93,5.05
106.289,2.41,4.0,6.17
106.299,1.14,4.25,6.53
106.309,0.04,4.66,5.94
106.319,-0.37,4.51,4.79
106.329,-0.15,4.55,3.91
106.339,0.34,4.89,3.35
106.349,0.95,5.07,2.86
106.359,1.21,4.74,2.05
106.369,1.19,4.1,1.39
106.38,1.1,3.68,1.06
106.389,0.74,3.09,1.12
106.4,0.32,2.48,1.19
106.41,-0.07,1.9,1.16
106.42,-0.51,1.15,1.14
106.43,-0.94,0.44,1.35
106.44,-1.3,-0.07,1.79
106.45,-1.47,-0.58,2.28
106.46,-1.59,-0.97,2.49
106.47,-1.73,-1.24,3.13
106.48,-2.35,-1.31,2.43
106.49,-2.89,-1.51,1.25
106.5,-2.97,-1.77,0.89
106.51,-3.21,-1.72,0.34
106.521,-3.25,-1.7,0.11
106.53,-3.1,-1.75,-0.08
106.541,-2.86,-1.79,-0.12
106.551,-2.51,-1.84,-0.11
106.561,-1.73,-1.85,0.04
106.571,-1.07,-1.91,0.29
106.581,-0.77,-2.02,0.43
106.591,-0.67,-2.24,0.47
106.601,-0.65,-2.47,0.51
106.611,-0.72,-2.51,0.61
106.621,-0.93,-2.26,0.83
106.631,-0.83,-1.71,1.2
106.642,-0.36,-0.89,1.56
106.651,0.31,0.01,1.87
106.662,0.94,0.61,2.0
106.672,1.3,0.96,1.62
106.682,1.34,1.24,0.81
106.692,1.21,1.39,-0.09
106.702,0.78,1.45,-0.82
106.712,0.17,1.53,-1.35
106.722,-0.68,1.63,-1.47
106.732,-1.42,1.85,-1.15
106.742,-1.86,2.11,-0.56
106.752,-2.08,2.24,0.29
106.762,-2.12,2.25,1.04
106.772,-1.95,2.23,1.71
106.783,-1.83,2.16,2.17
106.793,-1.8,1.83,2.4
106.803,-1.76,1.29,2.42
106.813,-1.76,0.84,2.22
106.823,-1.9,0.53,1.96
106.833,-2.03,0.16,1.64
106.843,-2.17,-0.4,1.26
106.853,-2.23,-0.97,0.94
106.863,-2.41,-1.48,0.68
106.873,-2.66,-1.9,0.48
106.883,-2.7,-2.31,0.21
106.893,-2.76,-2.6,-0.05
106.904,-2.9,-2.74,-0.43
106.914,-3.22,-2.88,-1.02
106.924,-3.43,-2.86,-1.53
106.934,-3.55,-2.61,-1.65
106.944,-3.42,-2.19,-1.17
106.954,-3.01,-1.84,-0.37
106.964,-2.55,-1.45,0.4
106.974,-2.22,-1.12,0.99
106.984,-1.89,-0.73,1.38
106.994,-1.31,-0.32,1.8
107.004,-0.49,0.0,2.36
107.014,0.43,0.34,2.95
107.025,1.21,0.56,3.28
107.035,1.64,0.65,3.2
107.045,1.79,0.86,2.64
107.055,1.48,1.15,1.84
107.065,1.06,1.26,0.86
107.075,0.63,1.26,-0.11
107.085,0.12,1.36,-0.9
107.095,-0.3,1.42,-1.27
107.105,-0.62,1.34,-1.05
107.115,-0.62,1.08,-0.33
107.125,-0.29,0.66,0.48
107.135,0.06,0.28,1.49
107.146,0.19,0.15,2.54
107.155,0.01,0.25,3.33
107.166,-0.57,0.6,3.96
107.176,-1.09,1.12,4.24
107.186,-1.41,1.78,4.2
107.196,-1.82,2.48,4.13
107.206,-2.32,2.79,3.98
107.216,-2.57,2.8,3.75
107.226,-2.68,2.66,3.72
107.236,-2.61,2.4,3.62
107.246,-2.32,2.04,3.43
107.256,-1.98,1.83,3.18
107.266,-1.56,1.65,2.95
107.276,-1.15,1.39,2.78
107.287,-0.79,1.19,2.51
107.296,-0.6,0.94,2.22
107.307,-0.67,0.7,1.88
107.317,-0.98,0.52,1.86
107.327,-1.17,0.35,1.98
107.337,-1.3,0.21,2.2
107.347,-1.27,0.07,2.34
107.357,-1.02,0.08,2.47
107.367,-0.74,0.1,2.58
107.377,-0.49,-0.14,2.46
107.387,-0.29,-0.48,2.11
107.397,-0.22,-0.85,1.69
107.408,-0.23,-1.19,1.29
107.418,-0.21,-1.39,0.91
107.428,-0.13,-1.47,0.63
107.438,-0.11,-1.64,0.47
107.448,-0.22,-1.93,0.43
107.458,-0.33,-2.24,0.48
107.468,-0.41,-2.46,0.66
107.478,-0.49,-2.66,0.96
107.488,-0.42,-2.75,1.19
107.498,-0.39,-2.63,1.26
107.508,-0.49,-2.49,1.15
107.518,-0.7,-2.42,0.87
107.529,-1.0,-2.38,0.48
107.538,-1.28,-2.38,0.11
107.549,-1.41,-2.25,-0.29
107.559,-1.36,-2.17,-0.69
107.569,-1.08,-2.04,-1.1
107.579,-0.71,-1.72,-1.47
107.589,-0.2,-1.29,-1.73
107.599,0.43,-0.87,-1.7
107.609,1.23,-0.5,-1.61
107.619,2.0,-0.2,-1.6
107.629,2.67,0.05,-1.64
107.639,3.41,0.3,-1.8
107.649,3.92,0.44,-2.03
107.659,4.24,0.44,-2.23
107.67,4.47,0.42,-2.42
107.68,4.8,0.37,-2.54
107.69,5.02,0.29,-2.45
107.7,5.18,0.22,-2.27
107.71,5.37,0.23,-2.07
107.72,5.5,0.23,-1.87
107.73,5.59,0.18,-1.7
107.74,5.57,0.16,-1.52
107.75,5.34,0.17,-1.33
107.76,5.0,0.26,-1.11
107.77,4.63,0.31,-0.83
107.78,4.01,0.39,-0.51
107.791,3.25,0.51,-0.22
107.8,2.59,0.67,-0.11
107.811,1.99,0.84,-0.34
107.821,1.3,1.12,-0.61
107.831,1.03,1.49,-0.76
107.841,0.98,1.85,-0.78
107.851,1.16,2.16,-0.64
107.861,1.46,2.3,-0.42
107.871,1.63,2.37,-0.38
107.881,1.53,2.43,-0.36
107.891,1.14,2.4,-0.45
107.901,0.56,2.24,-0.68
107.911,0.02,2.12,-0.86
107.922,-0.32,2.07,-0.78
107.932,-0.45,1.98,-0.47
107.942,-0.28,1.81,-0.09
107.952,0.04,1.68,0.31
107.962,0.23,1.48,0.6
107.972,0.23,1.13,0.64
107.982,0.14,0.89,0.47
107.992,0.04,0.76,0.23
108.002,0.12,0.73,-0.06
108.012,0.28,0.76,-0.22
108.022,0.23,0.9,-0.09
108.032,0.15,0.84,0.11
108.042,0.19,0.65,0.32
108.053,0.25,0.54,0.51
108.063,0.2,0.41,0.61
108.073,0.02,0.17,0.51
108.083,-0.28,-0.19,0.3
108.093,-0.59,-0.54,0.07
108.103,-0.82,-0.77,-0.14
108.113,-0.86,-0.83,-0.3
108.123,-0.89,-0.7,-0.33
108.133,-0.92,-0.53,-0.34
108.143,-0.95,-0.44,-0.4
108.153,-0.97,-0.5,-0.54
108.163,-0.99,-0.69,-0.65
108.174,-0.94,-0.81,-0.65
108.184,-0.8,-0.87,-0.68
108.194,-0.58,-0.88,-0.75
108.204,-0.54,-0.74,-0.77
108.214,-0.71,-0.65,-0.74
108.224,-0.85,-0.62,-0.51
108.234,-0.7,-0.5,-0.19
108.244,-0.43,-0.35,0.17
108.254,-0.14,-0.26,0.42
108.264,-0.02,-0.1,0.49
108.274,-0.22,0.1,0.15
108.284,-0.47,0.39,-0.5
108.294,-0.3,0.7,-0.97
108.304,0.21,1.12,-1.04
108.315,0.66,1.49,-0.91
108.325,1.3,1.53,-0.65
108.335,1.79,1.24,-0.27
108.345,1.92,0.68,-0.02
108.355,1.76,0.16,0.04
108.365,1.42,-0.22,-0.01
108.375,1.02,-0.34,-0.14
108.385,0.79,-0.16,-0.18
108.395,0.83,-0.05,-0.19
108.405,1.25,0.18,-0.29
108.415,1.79,0.41,-0.4
108.425,2.2,0.38,-0.8
108.436,2.49,0.18,-1.24
108.445,2.59,-0.16,-1.55
108.456,2.49,-0.55,-1.69
108.466,2.22,-0.91,-1.71
108.476,1.74,-1.3,-1.55
108.486,1.18,-1.67,-1.26
108.496,0.76,-2.0,-0.87
108.506,0.35,-2.23,-0.37
108.516,0.14,-2.27,0.07
108.526,0.05,-2.2,0.39
108.536,0.18,-1.97,0.54
108.546,0.4,-1.7,0.53
108.557,0.68,-1.38,0.18
108.566,0.7,-1.15,-0.13
108.577,0.73,-1.12,-0.44
108.587,0.69,-1.23,-0.66
108.597,0.66,-1.39,-0.76
108.607,0.54,-1.49,-0.71
108.617,0.31,-1.48,-0.64
108.627,0.02,-1.45,-0.61
108.637,-0.35,-1.4,-0.59
108.647,-0.85,-1.3,-0.61
108.657,-1.2,-1.22,-0.69
108.667,-1.36,-1.18,-0.68
108.677,-1.42,-0.92,-0.66
108.687,-1.51,-0.53,-0.76
108.698,-1.62,-0.23,-0.96
108.708,-1.58,0.15,-1.15
