timestamp,ax,ay,az
77.504,1.42,-2.05,-1.83
77.515,0.86,-2.23,-2.23
77.525,0.35,-2.23,-2.46
77.535,-0.03,-2.06,-2.5
77.545,-0.26,-1.78,-2.34
77.555,-0.39,-1.32,-2.1
77.565,-0.42,-0.83,-1.84
77.575,-0.23,-0.41,-1.48
77.585,0.01,0.01,-1.14
77.595,0.0,0.51,-0.9
77.605,-0.01,0.99,-0.71
77.615,0.2,1.45,-0.54
77.625,0.22,1.9,-0.41
77.636,0.21,2.26,-0.43
77.646,0.31,2.45,-0.63
77.656,0.37,2.55,-0.8
77.666,0.51,2.58,-0.92
77.676,0.58,2.49,-1.01
77.686,0.51,2.33,-1.16
77.696,0.3,2.15,-1.33
77.706,0.08,1.96,-1.43
77.716,-0.08,1.71,-1.47
77.726,-0.02,1.53,-1.31
77.737,0.14,1.5,-0.92
77.746,0.21,1.41,-0.46
77.757,0.24,1.1,-0.18
77.766,0.23,0.86,-0.06
77.777,0.22,0.71,-0.01
77.787,0.13,0.62,-0.05
77.797,0.07,0.44,-0.15
77.807,-0.06,0.18,-0.3
77.817,-0.2,-0.01,-0.45
77.827,-0.3,-0.23,-0.49
77.837,-0.41,-0.4,-0.43
77.847,-0.45,-0.55,-0.3
77.857,-0.53,-0.62,-0.23
77.867,-0.6,-0.67,-0.28
77.877,-0.58,-0.73,-0.31
77.887,-0.52,-0.79,-0.3
77.898,-0.54,-0.89,-0.2
77.908,-0.47,-1.05,-0.03
77.918,-0.23,-1.22,0.13
77.928,0.05,-1.38,0.29
77.938,0.28,-1.53,0.38
77.948,0.58,-1.53,0.48
77.958,0.83,-1.47,0.63
77.968,0.99,-1.48,0.72
77.978,1.11,-1.49,0.7
77.988,1.22,-1.37,0.58
77.998,1.41,-1.22,0.36
78.008,1.72,-1.07,0.11
78.019,2.08,-0.97,-0.01
78.028,2.31,-1.01,0.01
78.039,2.45,-1.11,0.0
78.049,2.56,-1.17,-0.19
78.059,2.61,-1.21,-0.51
78.069,2.45,-1.23,-0.88
78.079,2.13,-1.22,-1.25
78.089,1.82,-1.17,-1.42
78.099,1.52,-1.03,-1.32
78.109,1.18,-0.85,-1.22
78.119,0.82,-0.65,-1.31
78.129,0.5,-0.45,-1.46
78.14,0.4,-0.23,-1.48
78.149,0.56,0.05,-1.34
78.16,0.6,0.3,-1.03
78.17,0.49,0.48,-0.83
78.18,0.19,0.5,-0.9
78.19,-0.45,0.52,-1.29
78.2,-0.99,0.48,-1.63
78.21,-1.27,0.45,-1.75
78.22,-1.37,0.41,-1.68
78.23,-1.18,0.48,-1.29
78.24,-0.86,0.6,-0.83
78.25,-0.57,0.69,-0.54
78.26,-0.3,0.71,-0.38
78.27,-0.22,0.67,-0.4
78.281,-0.25,0.6,-0.67
78.29,-0.29,0.48,-0.92
78.301,-0.41,0.44,-1.09
78.311,-0.48,0.39,-1.1
78.321,-0.43,0.33,-0.91
78.331,-0.28,0.34,-0.74
78.341,-0.22,0.31,-0.6
78.351,-0.22,0.2,-0.62
78.361,-0.2,0.17,-0.58
78.371,-0.35,0.14,-0.55
78.381,-0.51,0.03,-0.6
78.391,-0.65,0.01,-0.65
78.402,-0.73,0.12,-0.7
78.411,-0.67,0.13,-0.76
78.422,-0.48,0.15,-0.71
78.432,-0.2,0.19,-0.51
78.442,0.16,0.22,-0.33
78.452,0.25,0.22,-0.25
78.462,0.09,0.15,-0.38
78.472,-0.12,0.0,-0.63
78.482,-0.32,-0.13,-0.75
78.492,-0.3,-0.26,-0.63
78.502,-0.1,-0.26,-0.37
78.512,0.17,-0.18,-0.16
78.522,0.45,-0.01,-0.1
78.532,0.68,0.19,-0.2
78.543,0.73,0.3,-0.48
78.553,0.57,0.24,-0.8
78.563,0.24,0.12,-1.03
78.573,-0.19,-0.16,-1.04
78.583,-0.68,-0.56,-0.85
78.593,-1.18,-1.01,-0.6
78.603,-1.89,-1.52,-0.37
78.613,-2.81,-1.89,-0.18
78.623,-3.67,-2.1,-0.27
78.633,-4.26,-2.04,-0.56
78.643,-4.48,-1.75,-0.73
78.653,-4.42,-1.31,-0.84
78.664,-4.12,-0.73,-0.67
78.674,-3.39,-0.15,-0.09
78.684,-2.48,0.43,0.62
78.694,-1.91,0.98,1.07
78.704,-1.57,1.31,1.32
78.714,-1.25,1.47,1.4
78.724,-0.96,1.43,1.27
78.734,-0.79,1.28,1.34
78.744,-0.56,1.13,1.58
78.754,-0.39,1.05,1.9
78.764,-0.55,0.86,2.08
78.774,-0.79,0.58,2.08
78.785,-0.85,0.68,2.04
78.794,-0.81,0.54,1.79
78.805,-0.73,0.36,1.8
78.815,-0.52,0.2,1.88
78.825,-0.18,-0.02,1.93
78.835,0.25,-0.16,1.99
78.845,0.7,-0.19,1.89
78.855,1.09,-0.23,1.65
78.865,1.24,-0.31,1.29
78.875,1.41,-0.33,0.95
78.885,1.65,-0.27,0.71
78.895,1.84,-0.14,0.62
78.905,1.97,-0.11,0.65
78.915,2.18,-0.09,0.75
78.926,2.25,-0.12,0.89
78.935,2.38,-0.31,1.1
78.946,2.55,-0.58,1.25
78.956,2.68,-0.85,1.2
78.966,2.7,-1.09,1.03
78.976,2.4,-1.24,0.55
78.986,1.76,-1.34,-0.13
78.996,1.09,-1.42,-0.74
79.006,0.31,-1.41,-1.29
79.016,-0.55,-1.19,-1.72
79.026,-1.42,-0.9,-1.96
79.036,-2.23,-0.6,-1.93
79.047,-2.87,-0.15,-1.7
79.056,-3.22,0.49,-1.3
79.067,-3.42,1.2,-0.87
79.077,-3.32,1.87,-0.46
79.087,-2.76,2.44,0.09
79.097,-1.93,2.99,0.66
79.107,-1.18,3.51,1.16
79.117,-0.58,3.85,1.56
79.127,-0.19,3.93,1.85
79.137,0.14,3.66,1.91
79.147,0.53,3.24,1.85
79.157,0.82,2.88,1.89
79.168,1.14,2.54,1.87
79.177,1.32,2.12,1.72
79.188,1.31,1.67,1.65
79.198,1.11,1.26,1.6
79.208,0.82,0.82,1.43
79.218,0.5,0.35,1.21
79.228,0.23,-0.2,1.03
79.238,-0.1,-0.75,0.96
79.248,-0.45,-1.16,1.03
79.258,-0.72,-1.34,1.35
79.268,-0.88,-1.56,1.73
79.278,-1.08,-1.95,1.92
79.288,-1.46,-2.39,1.84
79.298,-2.03,-2.81,1.55
79.309,-2.57,-3.25,1.03
79.319,-2.98,-3.63,0.52
79.329,-3.06,-3.75,0.07
79.339,-2.67,-3.46,-0.27
79.349,-1.84,-2.72,-0.45
79.359,-0.83,-1.73,-0.43
79.369,-0.18,-0.87,-0.26
79.379,0.36,-0.35,0.22
79.389,0.9,-0.04,1.0
79.399,1.42,0.22,1.86
79.409,1.89,0.4,2.89
79.419,2.39,0.4,3.89
79.43,2.94,0.31,4.74
79.439,3.39,0.28,5.34
79.45,3.8,0.23,5.41
79.46,4.05,0.13,4.95
79.47,4.1,-0.16,4.03
79.48,3.79,-0.43,2.93
79.49,3.43,-0.62,1.94
79.5,3.37,-0.78,1.23
79.51,3.41,-1.11,0.73
79.52,3.42,-1.52,0.55
79.53,3.37,-1.96,0.57
79.54,3.46,-2.38,0.77
79.55,3.83,-2.59,1.03
79.56,4.01,-2.71,1.14
79.571,4.01,-2.98,1.11
79.581,4.06,-3.17,0.93
79.591,4.05,-3.24,0.64
79.601,4.08,-3.24,0.32
79.611,3.92,-3.02,-0.03
79.621,3.24,-2.78,-0.43
79.631,2.48,-2.52,-1.02
79.641,1.89,-1.88,-1.41
79.651,1.36,-0.93,-1.42
79.661,1.22,0.1,-1.04
79.671,1.45,1.21,-0.53
79.681,1.78,2.16,0.24
79.692,2.35,2.77,1.2
79.702,2.73,3.12,1.83
79.712,2.5,3.42,1.99
79.722,1.8,3.65,1.71
79.732,1.15,3.62,0.99
79.742,0.4,3.42,0.42
79.752,-0.48,3.23,0.08
79.762,-1.4,2.88,-0.21
79.772,-2.25,2.46,-0.33
79.782,-2.97,2.04,-0.43
79.792,-3.6,1.74,-0.52
79.802,-4.18,1.53,-0.65
79.812,-4.58,1.31,-0.8
79.823,-4.69,1.13,-0.93
79.833,-4.64,1.16,-0.88
79.843,-4.42,1.36,-0.83
79.853,-4.09,1.56,-0.98
79.863,-3.68,1.68,-1.32
79.873,-3.4,1.75,-1.68
79.883,-3.28,1.76,-1.95
79.893,-3.03,1.76,-2.12
79.903,-2.76,1.76,-2.09
79.913,-2.5,1.61,-1.89
79.923,-2.24,1.3,-1.6
79.934,-1.87,0.92,-1.16
79.943,-1.46,0.42,-0.61
79.954,-1.18,-0.18,-0.16
79.964,-1.04,-0.89,0.09
79.974,-1.06,-1.62,0.1
79.984,-1.18,-2.2,-0.16
79.994,-1.14,-2.4,-0.72
80.004,-1.33,-2.36,-1.35
80.014,-1.41,-2.23,-1.96
80.024,-1.36,-2.05,-2.42
80.034,-1.07,-1.95,-2.49
80.044,-0.21,-1.78,-1.89
80.054,0.62,-1.38,-0.76
80.064,1.4,-0.99,0.45
80.075,2.32,-0.56,1.52
80.085,3.1,0.04,2.19
80.095,3.57,0.79,2.51
80.105,3.87,1.48,2.39
80.115,3.98,2.04,1.82
80.125,3.65,2.44,1.04
80.135,3.12,2.68,0.31
80.145,2.77,2.65,-0.3
80.155,2.59,2.61,-0.62
80.165,2.28,2.5,-0.49
80.175,1.93,1.98,-0.3
80.185,1.45,1.22,-0.08
80.195,0.65,0.39,0.11
80.205,-0.33,-0.4,0.03
80.216,-1.21,-1.04,-0.23
80.225,-1.84,-1.26,-0.48
80.236,-2.22,-1.2,-0.69
80.246,-2.31,-1.11,-0.95
80.256,-2.19,-0.9,-1.2
80.266,-2.02,-0.63,-1.45
80.276,-1.8,-0.33,-1.67
80.286,-1.55,-0.12,-1.79
80.296,-1.33,-0.08,-1.88
80.306,-1.09,-0.04,-1.97
80.316,-0.91,-0.03,-2.06
80.326,-0.66,-0.01,-2.1
80.337,-0.5,-0.01,-2.05
80.347,-0.52,-0.14,-1.95
80.357,-0.58,-0.31,-1.85
80.367,-0.6,-0.55,-1.75
80.377,-0.74,-0.89,-1.68
80.387,-0.92,-1.14,-1.65
80.397,-1.12,-1.28,-1.73
80.407,-1.43,-1.36,-1.89
80.417,-1.65,-1.27,-1.99
80.427,-1.66,-1.0,-1.88
80.438,-1.41,-0.64,-1.52
80.447,-0.97,-0.27,-1.0
80.458,-0.54,0.15,-0.51
80.468,-0.25,0.46,-0.2
80.478,0.05,0.6,-0.12
80.488,0.21,0.73,-0.23
80.498,0.12,0.84,-0.28
80.508,0.05,0.8,-0.27
80.518,-0.02,0.75,-0.29
80.528,-0.03,0.81,-0.25
80.538,-0.15,0.9,-0.33
80.548,-0.4,0.88,-0.56
80.558,-0.75,0.87,-0.76
80.568,-1.11,0.89,-0.86
80.578,-1.52,0.99,-0.84
80.589,-1.83,1.05,-0.75
80.599,-2.09,0.99,-0.6
80.609,-2.52,0.84,-0.36
80.619,-3.06,0.58,-0.05
80.629,-3.5,0.32,0.32
80.639,-3.84,0.19,0.77
80.649,-4.06,0.04,1.16
80.659,-4.15,-0.25,1.34
80.669,-3.98,-0.34,1.53
80.679,-3.47,-0.22,1.83
80.689,-2.87,-0.22,2.04
80.699,-2.29,-0.47,2.15
80.709,-1.82,-0.64,2.16
80.72,-1.66,-0.66,1.94
80.73,-1.71,-0.76,1.53
80.74,-1.81,-0.93,1.12
80.75,-1.95,-1.09,0.77
80.76,-1.97,-1.28,0.45
80.77,-1.67,-1.6,0.5
80.78,-1.12,-1.69,0.39
80.79,-0.6,-1.57,0.38
80.8,-0.2,-1.44,0.51
80.81,0.28,-1.43,0.51
80.82,0.81,-1.43,0.49
80.83,1.39,-1.27,0.46
80.84,1.85,-1.02,0.36
80.85,2.18,-0.88,0.12
80.861,2.37,-0.85,-0.1
80.871,2.46,-0.82,-0.22
80.881,2.45,-0.84,-0.4
80.891,2.34,-0.83,-0.53
80.901,2.19,-0.7,-0.36
80.911,2.27,-0.47,-0.02
80.921,2.5,-0.35,0.52
80.931,2.83,-0.28,1.35
80.941,3.12,-0.35,2.11
80.951,3.33,-0.5,2.44
80.961,3.42,-0.64,2.2
80.971,3.17,-0.75,1.27
80.982,2.64,-0.91,0.03
80.992,2.37,-0.84,-0.92
81.002,2.29,-0.43,-1.52
81.012,2.4,-0.01,-1.64
81.022,2.73,0.42,-1.47
81.032,3.03,0.95,-1.18
81.042,3.22,1.49,-0.78
81.052,3.37,1.95,-0.25
81.062,3.58,2.46,0.75
81.072,3.6,2.98,1.08
81.082,3.05,3.46,0.9
81.092,2.74,3.97,1.01
81.103,2.3,4.32,1.25
81.112,1.68,4.48,1.66
81.123,0.95,4.39,2.17
81.133,-0.01,4.07,2.84
81.143,-0.73,3.76,3.4
81.153,-0.92,3.38,3.65
81.163,-0.97,2.95,3.51
81.173,-1.01,2.57,2.96
81.183,-1.2,2.32,2.11
81.193,-1.4,2.09,1.31
81.203,-1.36,1.71,0.71
81.213,-0.86,1.38,0.61
81.223,-0.28,1.07,1.0
81.234,0.05,0.63,1.48
81.244,0.1,0.17,1.9
81.254,-0.07,-0.32,2.15
81.264,-0.56,-0.88,2.06
81.274,-1.37,-1.31,1.67
81.284,-1.99,-1.54,1.2
81.294,-2.37,-1.52,0.8
81.304,-2.56,-1.46,0.52
81.314,-2.59,-1.66,0.32
81.324,-2.57,-1.93,0.09
81.334,-2.71,-2.29,-0.19
81.344,-2.92,-2.74,-0.42
81.355,-2.88,-3.18,-0.56
81.365,-2.69,-3.49,-0.32
81.375,-2.79,-3.42,0.32
81.385,-2.81,-3.03,1.18
81.395,-2.47,-2.43,2.22
81.405,-1.31,-1.55,3.22
81.415,0.11,-0.41,3.77
81.425,1.15,0.54,3.94
81.435,1.77,1.09,3.74
81.445,2.27,1.38,3.09
81.455,2.66,1.32,2.08
81.465,2.47,0.76,1.45
81.475,2.07,0.25,1.51
81.486,1.7,-0.21,1.95
81.496,1.55,-0.72,2.45
81.506,1.56,-1.07,2.75
81.516,1.53,-1.4,2.9
81.526,1.4,-1.89,2.95
81.536,1.36,-2.51,2.84
81.546,1.52,-3.06,2.93
81.556,1.55,-3.52,2.21
81.566,1.51,-3.91,1.22
81.576,1.67,-4.11,0.64
81.586,1.79,-4.22,-0.15
81.596,1.7,-4.27,-0.78
81.607,1.58,-4.37,-1.16
81.616,1.6,-4.42,-1.35
81.627,2.01,-4.18,-1.49
81.637,2.65,-3.87,-1.37
81.647,3.38,-3.25,-1.11
81.657,3.99,-2.4,-0.88
81.667,4.6,-1.33,-0.52
81.677,4.93,0.04,0.29
81.687,5.72,1.51,0.85
81.697,5.95,2.66,0.75
81.707,5.31,3.14,1.03
81.717,4.41,3.47,0.81
81.727,3.2,3.95,0.17
81.737,1.78,4.23,-0.67
81.748,0.32,4.39,-1.54
81.758,-0.85,4.48,-2.15
81.768,-1.7,4.56,-2.36
81.778,-2.21,4.72,-2.18
81.788,-2.14,4.8,-1.7
81.798,-2.15,4.58,-0.92
81.808,-2.52,4.11,-0.08
81.818,-3.2,3.55,0.48
81.828,-3.98,3.0,0.55
81.838,-4.43,2.58,0.21
81.848,-4.62,2.34,-0.13
81.858,-4.71,2.29,-0.37
81.869,-4.61,2.26,-0.62
81.878,-4.27,2.31,-1.08
81.889,-3.74,2.24,-1.22
81.899,-3.5,2.06,-1.14
81.909,-3.82,1.7,-2.08
81.919,-3.72,1.15,-2.84
81.929,-3.49,0.73,-3.05
81.939,-3.36,0.38,-3.2
81.949,-3.14,0.14,-2.98
81.959,-3.03,-0.11,-2.41
81.969,-2.93,-0.5,-1.7
81.979,-2.85,-0.78,-0.93
81.99,-2.75,-0.82,-0.3
81.999,-2.41,-0.8,0.28
82.01,-1.68,-0.84,0.9
82.02,-0.9,-0.98,1.44
82.03,-0.38,-1.15,1.68
82.04,0.03,-1.27,1.32
82.05,0.43,-1.38,0.4
82.06,0.52,-1.46,-0.57
82.07,0.49,-1.43,-1.17
82.08,0.62,-1.45,-1.22
82.09,0.94,-1.43,-0.69
82.1,1.37,-1.27,0.19
82.111,2.01,-1.19,1.1
82.12,2.61,-1.09,1.85
82.131,3.07,-0.77,2.19
82.141,3.4,-0.42,2.0
82.151,3.7,-0.2,1.38
82.161,3.59,0.14,0.5
82.171,3.07,0.38,-0.93
82.181,2.24,0.52,-2.41
82.191,1.26,0.6,-3.31
82.201,0.42,0.62,-3.54
82.211,0.24,0.6,-2.83
82.221,0.59,0.53,-1.41
82.231,1.02,0.32,-0.25
82.241,0.98,-0.0,0.16
82.251,0.64,-0.38,-0.19
82.261,0.14,-0.67,-1.0
82.272,-0.32,-0.95,-1.99
82.282,-0.75,-1.15,-2.83
82.292,-1.2,-1.23,-3.26
82.302,-1.62,-1.29,-3.44
82.312,-1.79,-1.35,-3.45
82.322,-1.95,-1.38,-3.34
82.332,-2.11,-1.32,-2.94
82.342,-2.05,-1.23,-2.45
82.352,-2.0,-1.19,-2.15
82.362,-1.91,-1.35,-1.69
82.373,-1.63,-1.25,-1.21
82.382,-1.26,-1.16,-0.89
82.393,-0.93,-1.07,-0.7
82.403,-0.69,-0.95,-0.54
82.413,-0.57,-0.86,-0.34
82.423,-0.43,-0.94,-0.12
82.433,-0.24,-1.05,0.13
82.443,-0.13,-1.04,0.36
82.453,-0.02,-0.92,0.51
82.463,0.19,-0.86,0.62
82.473,0.41,-0.67,0.55
82.483,0.61,-0.38,0.31
82.493,0.63,-0.15,-0.1
