timestamp,ax,ay,az
203.095,4.04,-1.89,-0.06
203.105,2.91,-1.92,0.09
203.115,2.07,-1.47,0.33
203.125,1.47,-0.76,0.4
203.135,0.73,0.09,0.39
203.145,-0.03,1.01,0.2
203.155,-0.78,1.78,-0.36
203.166,-1.71,2.23,-1.16
203.176,-2.57,2.41,-1.87
203.186,-3.09,2.44,-2.33
203.196,-3.15,2.26,-2.44
203.206,-2.92,1.94,-2.27
203.216,-2.48,1.71,-1.7
203.226,-2.18,1.53,-0.84
203.236,-2.19,1.56,0.12
203.246,-2.16,1.56,0.96
203.256,-2.0,1.3,1.52
203.266,-1.92,0.88,1.95
203.276,-1.89,0.51,2.4
203.286,-1.9,0.2,2.8
203.296,-1.8,-0.13,2.94
203.307,-1.7,-0.42,2.78
203.317,-1.66,-0.71,2.31
203.327,-1.6,-0.99,1.75
203.337,-1.56,-1.14,1.15
203.347,-1.52,-1.23,0.32
203.357,-1.31,-1.47,-0.57
203.367,-0.77,-1.75,-1.26
203.377,-0.46,-2.05,-1.81
203.387,-0.52,-2.03,-1.96
203.397,-0.6,-1.54,-1.39
203.407,-0.74,-1.3,0.23
203.417,-1.1,-1.62,3.02
203.428,-0.78,-1.76,5.67
203.438,-0.34,-1.56,7.5
203.448,-0.02,-1.03,8.71
203.458,0.5,-0.2,9.35
203.468,0.84,1.06,9.57
203.478,0.53,2.42,9.79
203.488,0.08,3.17,10.36
203.499,0.05,3.19,11.25
203.508,-0.59,2.42,12.8
203.518,-1.52,1.39,13.91
203.529,-2.61,0.25,14.26
203.539,-4.11,-1.16,14.64
203.549,-5.33,-2.27,14.65
203.559,-7.67,-3.43,14.62
203.569,-7.68,-4.04,14.88
203.579,-4.02,-2.34,14.94
203.589,-0.75,0.87,14.41
203.599,1.99,3.67,12.65
203.609,3.38,5.96,9.8
203.619,3.76,7.3,6.78
203.629,4.43,7.64,4.23
203.639,4.99,7.46,1.91
203.649,5.25,6.38,0.24
203.659,5.23,4.95,-0.84
203.67,5.02,3.55,-1.68
203.68,4.36,2.27,-2.38
203.69,4.08,1.21,-3.01
203.7,4.54,0.42,-3.17
203.71,5.2,-0.32,-3.05
203.72,5.62,-0.83,-2.74
203.73,5.71,-1.36,-2.01
203.74,5.6,-1.89,-1.1
203.75,5.59,-2.26,-0.5
203.76,5.73,-2.28,-0.14
203.77,5.83,-2.09,0.24
203.78,5.81,-1.69,0.54
203.791,5.65,-1.53,0.5
203.8,5.33,-1.69,0.36
203.811,5.12,-1.87,0.23
203.821,5.17,-1.9,0.29
203.831,5.56,-1.88,0.35
203.841,6.35,-1.67,0.44
203.851,7.62,-1.2,0.5
203.861,9.03,-0.58,0.7
203.871,9.88,-0.18,1.29
203.881,10.31,-0.36,2.26
203.891,10.8,-1.15,3.27
203.901,11.17,-2.07,4.12
203.911,11.47,-2.8,4.53
203.921,12.02,-3.47,4.4
203.932,12.98,-3.86,4.03
203.942,13.9,-3.91,3.79
203.952,14.63,-3.75,3.55
203.962,15.26,-3.67,3.31
203.972,15.77,-3.92,3.31
203.982,16.7,-4.12,3.67
203.992,18.06,-3.89,3.98
204.002,19.21,-3.37,4.09
204.012,20.0,-2.67,4.32
204.022,19.98,-2.09,4.74
204.032,19.59,-1.44,5.53
204.042,19.63,-0.83,6.33
204.053,19.82,-0.7,6.71
204.062,20.09,-0.69,6.42
204.073,20.03,-0.74,5.52
204.083,20.21,-0.9,3.96
204.093,21.23,-0.67,1.46
204.103,21.64,-0.07,-1.53
204.113,21.01,0.42,-4.03
204.123,19.84,0.64,-6.12
204.133,17.35,0.2,-8.0
204.143,13.98,-0.43,-9.31
204.153,10.71,-0.49,-10.68
204.163,8.07,0.21,-12.26
204.174,6.51,1.56,-13.2
204.184,5.52,2.62,-13.74
204.194,4.64,2.81,-14.07
204.204,3.17,2.52,-14.07
204.214,1.77,1.34,-13.93
204.224,1.35,-0.4,-13.49
204.234,0.67,-1.11,-12.77
204.244,-0.37,-0.84,-11.84
204.254,-1.38,-0.87,-10.5
204.264,-2.03,-0.88,-9.36
204.274,-1.73,-0.71,-8.85
204.284,-0.85,-0.27,-8.81
204.294,0.17,0.46,-8.99
204.304,1.38,1.01,-9.51
204.315,2.25,1.74,-10.37
204.325,2.83,2.85,-11.24
204.335,3.25,3.6,-11.74
204.345,3.05,4.12,-11.67
204.355,2.52,4.54,-10.97
204.365,2.02,4.76,-10.2
204.375,1.62,4.77,-9.51
204.385,1.06,4.57,-8.82
204.395,0.03,4.34,-7.97
204.405,-1.15,3.9,-7.0
204.415,-2.15,2.96,-6.15
204.425,-2.99,1.81,-5.22
204.436,-3.5,0.75,-4.24
204.445,-3.62,-0.06,-3.51
204.456,-3.64,-0.58,-2.93
204.466,-3.45,-0.87,-2.47
204.476,-2.98,-0.95,-2.3
204.486,-2.46,-0.92,-2.26
204.496,-1.86,-0.77,-2.3
204.506,-1.27,-0.58,-2.51
204.516,-0.82,-0.38,-2.66
204.526,-0.68,-0.25,-2.71
204.536,-0.66,-0.22,-2.71
204.546,-0.72,-0.35,-2.64
204.557,-0.82,-0.61,-2.37
204.566,-0.89,-1.05,-1.97
204.577,-1.08,-1.59,-1.47
204.586,-1.36,-1.99,-0.86
204.597,-1.23,-2.11,-0.45
204.607,-0.96,-1.84,-0.45
204.617,-0.78,-1.3,-0.79
204.627,-0.91,-0.65,-1.17
204.637,-1.12,-0.22,-1.45
204.647,-1.19,0.05,-1.86
204.657,-1.67,0.25,-2.26
204.667,-2.27,0.36,-2.79
204.677,-2.91,0.23,-3.7
204.687,-3.7,0.18,-4.72
204.698,-3.67,0.65,-5.79
204.707,-3.1,1.49,-6.78
204.718,-2.52,2.19,-7.46
204.728,-1.89,2.64,-7.86
204.738,-1.68,2.66,-8.01
204.748,-1.57,2.49,-7.75
204.758,-1.25,2.36,-7.22
204.768,-0.66,2.35,-6.53
204.778,0.01,2.37,-5.76
204.788,0.5,2.28,-4.97
204.798,0.88,1.95,-4.15
204.808,0.96,1.43,-3.32
204.818,0.82,1.1,-2.4
204.828,0.93,1.01,-1.71
204.839,1.41,1.16,-1.61
204.848,2.11,1.48,-1.9
204.859,2.83,1.69,-1.92
204.869,3.35,1.76,-1.04
204.879,3.53,1.75,0.42
204.889,3.74,1.47,1.78
204.899,3.56,0.83,3.4
204.909,2.72,0.77,4.78
204.919,2.32,0.52,5.5
204.929,2.28,-0.0,6.12
204.939,2.34,-0.42,7.15
204.949,2.51,-0.15,8.15
204.96,3.01,0.34,8.1
204.969,3.49,0.34,7.44
204.979,3.53,-0.21,6.97
204.99,3.25,-1.0,6.83
205.0,2.95,-1.84,7.17
205.01,3.07,-2.45,7.8
205.02,3.58,-2.77,8.14
205.03,4.6,-2.79,8.01
205.04,5.76,-2.48,7.51
205.05,6.88,-1.94,6.89
205.06,8.69,-1.12,6.31
205.07,9.66,-0.02,4.08
205.08,10.51,1.41,2.77
205.09,10.77,2.84,1.41
205.1,10.08,3.76,-0.21
205.11,8.74,4.01,-1.49
205.121,7.31,3.78,-2.27
205.131,5.87,3.3,-2.38
205.141,4.48,2.6,-1.73
205.151,3.49,1.56,-0.6
205.161,2.68,0.37,0.77
205.171,1.66,-0.62,2.05
205.181,0.81,-1.6,3.2
205.191,0.34,-2.8,4.11
205.201,0.02,-4.16,4.59
205.211,-0.33,-5.68,4.65
205.222,-0.27,-7.54,4.23
205.232,0.29,-9.67,3.38
205.242,0.77,-11.29,2.33
205.252,0.76,-12.03,1.17
205.262,0.52,-12.1,-0.14
205.272,0.22,-11.64,-1.4
205.282,0.14,-10.6,-2.92
205.292,0.54,-9.87,-4.91
205.302,1.0,-9.36,-7.3
205.312,0.53,-8.86,-9.57
205.322,-0.49,-8.1,-11.49
205.332,-0.88,-7.44,-12.83
205.342,-0.42,-6.78,-13.04
205.352,0.05,-5.48,-11.78
205.363,0.67,-3.37,-10.01
205.373,1.71,-1.23,-8.5
205.383,2.95,0.56,-7.73
205.393,3.3,2.15,-7.43
205.403,3.54,3.55,-4.97
205.413,3.53,5.45,-4.99
205.423,3.95,7.16,-4.43
205.433,4.3,8.0,-3.18
205.443,3.77,8.2,-2.0
205.453,2.42,7.95,0.08
205.464,1.1,8.23,1.63
205.474,-0.59,8.91,1.83
205.484,-0.88,9.17,2.5
205.494,-0.74,8.31,4.14
205.504,-1.6,6.3,6.76
205.514,-2.1,5.49,8.84
205.524,-1.88,6.22,10.36
205.534,-3.07,4.65,10.8
205.544,-4.08,4.11,10.58
205.554,-5.31,3.04,9.22
205.564,-5.76,2.47,7.73
205.574,-5.87,2.29,7.43
205.584,-5.41,1.93,8.18
205.594,-4.78,1.89,9.67
205.604,-4.27,2.1,10.42
205.615,-4.07,2.18,10.22
205.625,-4.1,2.01,9.98
205.635,-4.03,1.48,10.14
205.645,-3.73,1.24,10.4
205.655,-3.31,1.37,10.12
205.665,-2.9,1.51,9.47
205.675,-2.37,1.42,8.99
205.685,-1.72,1.24,8.72
205.695,-1.16,0.97,8.68
205.705,-0.77,0.59,8.91
205.715,-0.37,0.17,9.3
205.725,0.15,-0.04,9.69
205.735,0.28,-0.09,9.68
205.746,0.14,-0.28,9.48
205.756,-0.13,-0.39,9.19
205.766,-0.5,-0.35,8.82
205.776,-0.77,-0.37,8.47
205.786,-1.11,-0.51,7.96
205.796,-1.28,-0.48,7.43
205.806,-1.07,-0.09,6.82
205.816,-0.79,0.49,6.18
205.826,-0.4,1.28,5.4
205.836,0.45,2.29,4.28
205.846,1.29,3.22,2.64
205.856,1.8,3.64,0.86
205.867,2.14,3.55,-0.72
205.877,2.96,3.3,-2.27
205.887,3.38,3.32,-3.28
205.897,4.03,3.34,-4.1
205.907,4.92,3.14,-5.18
205.917,5.34,2.76,-5.95
205.927,5.5,2.05,-5.88
205.937,5.65,1.3,-5.15
205.947,5.51,0.35,-4.19
205.957,5.18,-0.65,-3.18
205.967,4.7,-1.67,-2.51
205.977,4.05,-2.65,-2.38
205.987,3.39,-3.55,-2.49
205.998,2.63,-4.39,-2.54
206.008,1.87,-5.25,-1.75
206.018,1.52,-5.84,-2.21
206.028,0.33,-6.36,-2.78
206.038,-0.99,-6.81,-2.86
206.048,-1.59,-7.07,-2.89
206.058,-1.51,-6.89,-2.81
206.068,-1.08,-6.14,-2.65
206.078,-0.61,-5.2,-2.44
206.088,0.21,-4.46,-2.53
206.098,1.27,-3.9,-2.63
206.108,2.46,-3.35,-2.65
206.118,3.38,-2.63,-2.56
206.129,4.06,-1.9,-2.44
206.139,4.48,-1.24,-2.66
206.149,4.62,-0.97,-3.02
206.159,4.62,-0.88,-3.31
206.169,4.52,-0.87,-3.43
206.179,4.41,-1.08,-3.37
206.189,4.32,-1.53,-3.33
206.199,4.2,-2.01,-3.55
206.209,3.9,-2.48,-3.33
206.219,4.38,-3.1,-2.01
206.229,4.7,-3.77,-1.86
206.239,2.38,-3.88,-3.98
206.249,2.33,-3.81,-2.85
206.26,2.48,-4.05,-2.76
206.27,2.54,-3.98,-2.58
206.28,2.07,-3.93,-2.04
206.29,1.93,-4.03,-1.79
206.3,1.91,-4.1,-1.5
206.31,2.11,-3.98,-1.22
206.32,2.07,-3.83,-0.58
206.33,1.44,-3.58,0.16
206.34,0.78,-3.24,0.78
206.35,0.42,-2.78,0.96
206.36,0.05,-2.19,1.11
206.371,-0.31,-1.5,1.39
206.38,-0.59,-0.78,1.7
206.391,-0.55,0.07,2.03
206.401,-0.1,1.04,2.39
206.411,1.0,2.0,2.46
206.421,2.32,2.88,2.36
206.431,3.13,3.43,2.63
206.441,3.66,3.38,3.28
206.451,3.95,3.05,3.94
206.461,3.77,2.58,4.51
206.471,3.31,2.28,5.0
206.481,2.69,2.33,5.05
206.491,1.92,2.4,4.87
206.501,1.17,2.32,4.45
206.512,0.36,2.23,3.79
206.522,-0.48,2.21,3.1
206.532,-0.81,2.44,2.05
206.542,-1.03,2.98,0.99
206.552,-1.27,3.61,0.45
206.562,-1.04,4.31,-0.01
206.572,-0.8,4.94,-0.34
206.582,-0.53,5.43,-0.39
206.592,-0.41,5.5,-0.26
206.602,-0.46,5.13,-0.09
206.612,-0.63,4.52,0.17
206.622,-0.87,3.81,0.48
206.633,-1.14,3.08,0.74
206.642,-1.32,2.37,0.88
206.653,-1.27,1.66,1.0
206.663,-1.07,1.01,0.99
206.673,-0.88,0.33,0.8
206.683,-0.77,-0.47,0.44
206.693,-0.41,-1.15,-0.07
206.703,-0.23,-1.71,-0.85
206.713,-0.3,-2.21,-2.12
206.723,-0.36,-2.66,-3.71
206.733,-0.26,-3.16,-4.33
206.743,0.29,-3.52,-4.33
206.753,0.65,-3.01,-5.82
206.763,0.33,-2.73,-6.08
206.774,1.02,-2.7,-5.81
206.784,1.81,-2.83,-5.03
206.794,1.66,-2.57,-4.29
206.804,1.64,-1.88,-4.51
206.814,2.01,-1.3,-5.44
206.824,1.69,-1.36,-5.74
206.834,0.83,-1.89,-5.51
206.844,-0.09,-2.43,-4.89
206.854,-1.08,-2.78,-4.4
206.864,-1.71,-2.96,-4.27
206.874,-2.26,-2.94,-4.13
206.884,-2.68,-2.8,-3.66
206.895,-2.73,-2.4,-3.4
206.905,-2.51,-1.34,-3.68
206.915,-1.56,0.14,-4.11
206.925,0.04,1.49,-4.16
206.935,2.74,2.74,-2.75
206.945,2.38,3.61,-2.87
206.955,1.97,4.08,-3.51
206.965,3.89,4.46,-1.14
206.975,4.72,5.52,0.31
206.985,5.01,6.34,1.32
206.995,4.3,6.47,1.98
207.005,3.03,6.3,2.48
207.015,1.94,6.08,2.66
207.026,0.67,5.79,2.2
207.036,-0.36,5.43,2.61
207.046,-0.63,5.48,1.27
207.056,-0.13,5.57,1.46
207.066,0.28,5.43,3.15
207.076,0.04,5.13,3.88
207.086,-0.2,4.59,4.39
207.096,-0.42,4.38,4.46
207.106,-0.85,4.28,4.4
207.116,-1.33,4.1,3.87
207.126,-1.67,3.93,3.44
207.137,-1.34,3.86,3.31
207.146,-0.58,4.0,3.39
207.157,-0.2,4.07,3.38
207.167,0.14,3.9,3.41
207.177,0.57,3.52,3.77
207.187,1.12,2.98,4.17
207.197,1.81,2.46,4.56
207.207,2.51,2.17,5.08
207.217,3.08,2.02,5.42
207.227,3.44,1.8,5.88
207.237,3.5,1.47,6.18
207.247,3.41,1.14,6.09
207.257,3.17,0.92,5.61
207.267,2.68,0.59,5.06
207.278,2.7,0.29,4.74
207.288,2.68,0.21,4.77
207.298,2.5,0.27,4.8
207.308,2.63,0.38,4.85
207.318,2.57,0.32,4.97
207.328,1.91,0.01,4.87
207.338,0.88,-0.36,4.49
207.348,0.04,-0.73,4.02
207.358,-0.35,-1.05,3.54
207.368,-0.81,-1.11,3.13
207.378,-1.32,-1.1,3.05
207.388,-1.42,-1.33,3.26
207.398,-1.59,-1.66,3.61
207.409,-1.86,-1.97,3.93
207.419,-1.94,-2.4,4.08
207.429,-2.09,-2.9,4.13
207.439,-2.15,-3.48,4.22
207.449,-2.09,-4.06,4.38
207.459,-2.02,-4.45,4.47
207.469,-1.81,-4.63,4.16
207.479,-1.24,-4.86,3.68
207.489,-0.41,-5.15,3.11
207.499,0.44,-5.35,2.43
207.509,1.29,-5.42,1.68
207.519,2.63,-5.29,0.88
207.529,3.4,-5.09,0.67
207.54,3.42,-5.02,0.68
207.55,3.39,-5.04,-0.17
207.56,2.77,-5.02,-1.82
207.57,2.35,-5.03,-3.31
207.58,2.18,-5.06,-4.69
207.59,2.3,-4.91,-5.61
207.6,2.51,-4.41,-5.94
207.61,3.26,-4.0,-5.73
207.62,4.11,-3.62,-5.43
207.63,4.38,-3.04,-5.35
207.64,4.2,-2.62,-5.58
207.65,4.05,-2.45,-6.05
207.661,3.97,-2.15,-6.38
207.671,3.58,-1.55,-6.51
207.681,3.15,-0.86,-6.34
207.691,2.95,-0.35,-5.97
207.701,2.88,0.09,-5.48
207.711,2.49,0.52,-5.02
207.721,2.01,0.77,-4.47
207.731,1.87,1.17,-4.03
207.741,1.72,1.9,-3.51
207.751,1.76,2.76,-2.86
207.761,1.76,3.62,-2.43
207.772,1.6,4.73,-2.38
207.781,1.35,6.05,-2.29
207.791,1.03,7.17,-1.6
207.802,0.48,7.81,-0.83
207.812,-0.17,8.16,-0.1
207.822,-0.66,8.4,0.67
207.832,-1.14,8.5,1.67
207.842,-1.5,8.43,3.01
207.852,-1.71,8.28,4.02
207.862,-1.99,7.98,4.77
207.872,-2.24,7.48,5.26
207.882,-2.36,7.07,5.33
207.892,-2.5,6.82,5.33
207.902,-2.47,6.57,5.56
207.912,-2.25,6.46,5.96
207.922,-2.2,6.21,6.39
207.932,-2.46,5.59,6.67
207.943,-2.67,4.95,6.9
207.953,-2.71,4.57,7.17
207.963,-2.67,4.26,7.23
207.973,-2.65,4.01,6.88
207.983,-2.78,3.9,6.09
207.993,-2.96,3.89,5.05
208.003,-2.51,3.93,4.01
208.013,-1.72,3.87,3.4
208.023,-1.23,3.83,2.97
208.033,-0.99,3.74,2.31
208.043,-0.82,3.46,1.58
208.054,-0.62,3.12,0.78
208.064,-0.36,2.98,0.02
208.074,-0.24,2.87,-0.85
208.084,0.03,2.58,-1.43
