timestamp,ax,ay,az
174.501,-0.0,-1.96,-0.98
174.511,-0.98,-1.62,-1.34
174.521,-1.29,-0.99,-1.46
174.531,-1.23,-0.2,-1.08
174.541,-1.0,0.7,-0.14
174.551,-0.59,1.41,0.69
174.561,-0.08,1.98,1.3
174.572,0.84,2.28,2.3
174.582,1.16,2.53,2.29
174.592,1.2,2.5,2.11
174.602,1.41,2.42,1.78
174.612,1.46,2.45,1.27
174.622,1.42,2.52,0.83
174.632,1.32,2.4,0.43
174.642,1.12,2.11,0.09
174.652,0.95,1.85,-0.0
174.662,0.91,1.63,0.17
174.672,1.02,1.41,0.49
174.682,1.15,1.12,0.79
174.692,1.27,0.72,0.89
174.702,1.27,0.25,0.71
174.713,1.11,-0.13,0.38
174.723,0.82,-0.45,0.04
174.733,0.42,-0.76,-0.33
174.743,-0.05,-1.1,-0.63
174.753,-0.53,-1.5,-0.84
174.763,-0.91,-1.93,-1.0
174.773,-1.05,-2.2,-1.08
174.783,-0.99,-2.37,-1.04
174.793,-1.0,-2.35,-1.04
174.803,-1.04,-2.2,-0.94
174.813,-1.05,-2.18,-0.77
174.823,-1.08,-2.34,-0.44
174.834,-1.1,-2.48,0.02
174.843,-1.08,-2.41,0.51
174.854,-1.06,-2.25,0.82
174.864,-1.07,-1.94,0.94
174.874,-1.21,-1.51,0.98
174.884,-1.23,-1.01,0.97
174.894,-1.04,-0.39,0.73
174.904,-0.8,0.41,0.31
174.914,-0.43,1.21,-0.2
174.924,0.03,1.8,-0.76
174.934,0.63,2.13,-1.25
174.944,1.4,2.43,-1.45
174.955,2.01,2.68,-1.35
174.965,2.2,2.71,-1.06
174.975,2.01,2.51,-0.69
174.985,1.79,2.24,-0.29
174.995,1.66,2.3,0.37
175.005,1.6,2.46,0.97
175.015,1.65,2.5,1.26
175.025,1.69,2.48,1.38
175.035,1.76,2.25,1.27
175.045,1.73,1.84,0.89
175.055,1.44,1.4,0.26
175.065,0.98,1.04,-0.35
175.075,0.44,0.72,-0.72
175.085,0.02,0.42,-0.69
175.096,-0.3,0.21,-0.18
175.105,-0.68,0.02,0.59
175.116,-1.17,-0.21,1.29
175.126,-1.66,-0.39,1.84
175.136,-2.13,-0.64,2.2
175.146,-2.52,-0.91,2.37
175.156,-2.8,-0.98,2.43
175.166,-2.98,-0.98,2.43
175.176,-2.85,-1.0,2.44
175.186,-2.77,-0.97,2.44
175.196,-2.71,-0.98,2.3
175.206,-2.61,-1.08,2.2
175.217,-2.6,-1.22,2.18
175.226,-2.43,-1.36,2.25
175.237,-2.22,-1.51,2.36
175.247,-2.04,-1.54,2.36
175.257,-1.83,-1.45,2.3
175.267,-1.75,-1.28,2.17
175.277,-1.81,-0.98,1.8
175.287,-1.84,-0.56,1.3
175.297,-1.87,-0.1,0.8
175.307,-2.07,0.26,0.45
175.317,-2.07,0.44,0.53
175.327,-1.81,0.34,0.97
175.337,-1.4,-0.14,1.48
175.347,-0.92,-0.93,1.82
175.358,-0.59,-1.87,1.9
175.368,-0.38,-2.82,1.72
175.378,-0.24,-3.58,1.39
175.388,-0.28,-3.96,0.87
175.398,-0.84,-4.07,-0.13
175.408,-1.21,-4.03,-1.52
175.418,-1.53,-3.77,-2.77
175.428,-1.71,-3.3,-3.81
175.438,-1.87,-2.57,-4.5
175.448,-2.25,-1.69,-4.94
175.458,-2.68,-0.96,-5.34
175.468,-2.83,-0.38,-5.39
175.478,-2.78,0.18,-4.73
175.488,-2.74,0.71,-3.38
175.499,-2.69,1.21,-1.45
175.508,-2.72,1.72,1.02
175.519,-2.53,2.04,3.65
175.529,-2.12,2.16,6.02
175.539,-1.75,2.3,7.49
175.549,-1.4,2.64,7.85
175.559,-1.08,3.02,7.52
175.569,-0.76,3.26,6.79
175.579,-0.43,3.5,5.59
175.589,-0.2,3.81,4.31
175.599,-0.12,4.0,3.51
175.609,-0.03,4.01,3.05
175.62,-0.09,3.74,2.66
175.63,-0.24,3.3,2.17
175.64,-0.46,2.84,1.71
175.65,-0.7,2.35,1.27
175.66,-0.87,1.94,0.8
175.67,-0.98,1.63,0.47
175.68,-1.03,1.45,0.4
175.69,-0.95,1.35,0.59
175.7,-0.74,1.26,1.0
175.71,-0.45,1.0,1.53
175.721,-0.27,0.59,1.92
175.73,-0.26,0.0,2.15
175.741,-0.48,-0.65,2.28
175.751,-0.84,-1.35,2.29
175.761,-1.29,-2.01,2.22
175.771,-1.7,-2.6,2.15
175.781,-1.85,-3.05,2.13
175.791,-1.71,-3.27,2.18
175.801,-1.31,-3.21,2.28
175.811,-0.9,-2.94,2.36
175.821,-0.72,-2.7,2.29
175.831,-0.78,-2.61,1.88
175.841,-0.91,-2.37,1.22
175.851,-1.16,-2.09,0.6
175.861,-1.35,-1.82,-0.09
175.871,-1.48,-1.4,-0.81
175.882,-1.65,-0.9,-1.47
175.892,-1.74,-0.6,-1.98
175.902,-1.62,-0.42,-2.32
175.914,-1.48,-0.17,-2.58
175.922,-1.27,0.14,-2.75
175.932,-1.1,0.47,-2.85
175.942,-0.9,0.82,-2.88
175.952,-0.62,1.28,-2.74
175.962,-0.25,1.65,-2.35
175.972,0.25,1.82,-1.7
175.983,0.84,1.93,-1.01
175.992,1.3,2.0,-0.49
176.003,1.55,1.93,-0.17
176.013,1.54,1.77,-0.11
176.023,1.34,1.64,-0.33
176.033,0.98,1.67,-0.61
176.043,0.58,1.68,-0.85
176.053,0.18,1.75,-0.88
176.063,-0.01,1.93,-0.53
176.073,0.13,2.07,0.14
176.083,0.42,2.11,0.91
176.093,0.77,1.88,1.56
176.103,0.9,1.5,1.96
176.113,0.93,1.11,2.11
176.124,0.93,0.71,2.02
176.133,0.82,0.37,1.79
176.144,0.68,0.15,1.5
176.154,0.48,-0.04,1.25
176.164,0.3,-0.11,1.09
176.174,0.11,-0.07,0.91
176.184,-0.17,0.06,0.7
176.194,-0.41,0.15,0.52
176.204,-0.63,0.12,0.41
176.214,-0.78,0.01,0.41
176.224,-0.89,-0.19,0.43
176.234,-1.02,-0.35,0.48
176.244,-1.15,-0.56,0.53
176.254,-1.34,-0.83,0.48
176.265,-1.57,-1.12,0.45
176.275,-1.79,-1.43,0.4
176.285,-1.92,-1.77,0.3
176.297,-1.97,-1.9,0.09
176.305,-2.12,-1.75,-0.19
176.315,-2.22,-1.39,-0.36
176.325,-2.23,-0.95,-0.46
176.335,-2.22,-0.69,-0.45
176.345,-2.09,-0.69,-0.13
176.355,-1.78,-0.76,0.43
176.365,-1.33,-1.08,1.14
176.375,-0.87,-1.58,1.98
176.386,-0.35,-1.83,2.88
176.396,0.21,-1.97,3.71
176.406,0.76,-2.1,4.42
176.416,1.17,-2.03,4.93
176.426,1.31,-1.93,5.1
176.436,1.41,-1.91,4.93
176.446,1.69,-1.86,4.51
176.456,1.91,-1.72,4.08
176.466,2.06,-1.48,3.75
176.476,2.39,-1.35,3.47
176.486,2.71,-1.37,3.31
176.496,2.78,-1.22,3.21
176.506,2.64,-1.02,3.03
176.516,2.6,-0.84,2.65
176.527,2.67,-0.62,2.17
176.537,2.94,-0.18,1.65
176.547,3.33,0.39,1.04
176.557,3.7,0.86,0.43
176.567,3.83,1.14,-0.17
176.577,3.87,1.36,-0.75
176.587,3.76,1.5,-1.25
176.597,3.42,1.41,-1.56
176.607,2.98,1.16,-1.6
176.617,2.55,0.95,-1.38
176.627,2.31,0.84,-0.94
176.637,2.15,0.79,-0.36
176.647,2.17,0.84,0.21
176.658,2.31,1.07,0.62
176.668,2.26,1.18,0.76
176.678,2.31,1.24,0.62
176.688,2.23,1.36,0.31
176.698,2.01,1.42,-0.02
176.708,1.93,1.26,-0.31
176.718,1.91,1.01,-0.61
176.728,1.8,0.7,-0.87
176.738,1.53,0.23,-1.1
176.748,1.18,-0.31,-1.41
176.758,0.79,-0.9,-1.73
176.769,0.39,-1.47,-2.0
176.778,0.04,-1.91,-2.32
176.789,-0.33,-2.2,-2.61
176.799,-0.61,-2.39,-2.8
176.809,-0.76,-2.53,-2.75
176.819,-0.86,-2.45,-2.42
176.829,-0.81,-2.08,-1.85
176.839,-0.46,-1.7,-1.02
176.849,-0.09,-1.51,-0.0
176.859,0.1,-1.56,0.98
176.869,0.1,-1.69,2.09
176.879,0.17,-1.76,3.25
176.89,0.33,-1.59,4.17
176.9,0.4,-1.3,4.75
176.91,0.18,-1.07,4.85
176.92,-0.28,-0.74,4.28
176.93,-0.82,-0.42,3.18
176.94,-1.16,-0.21,2.2
176.95,-1.09,-0.07,1.45
176.96,-0.82,-0.03,0.8
176.97,-0.58,-0.07,0.36
176.98,-0.26,-0.15,-0.02
176.99,-0.09,-0.17,-0.33
177.0,-0.53,-0.16,-0.76
177.01,-1.21,0.0,-1.33
177.02,-1.58,0.31,-1.65
177.031,-1.68,0.75,-1.17
177.041,-1.49,1.26,0.14
177.051,-0.92,1.57,1.61
177.061,-0.08,1.67,3.12
177.071,0.75,1.63,4.41
177.081,1.36,1.29,5.01
177.091,1.5,0.82,5.07
177.101,1.3,0.47,4.75
177.111,0.95,0.27,4.11
177.121,0.76,0.21,3.31
177.131,0.65,0.22,2.56
177.141,0.56,0.27,1.97
177.152,0.48,0.28,1.52
177.162,0.58,0.31,1.12
177.172,0.67,0.31,0.77
177.182,0.48,0.07,0.45
177.192,0.23,-0.19,0.1
177.202,-0.13,-0.47,-0.29
177.212,-0.63,-0.83,-0.65
177.222,-1.2,-1.16,-1.01
177.232,-1.73,-1.43,-1.32
177.242,-2.24,-1.67,-1.58
177.252,-2.61,-1.84,-1.77
177.262,-2.76,-1.94,-1.87
177.273,-2.76,-2.09,-2.0
177.283,-2.61,-2.18,-2.14
177.293,-2.49,-2.07,-2.3
177.303,-2.18,-1.84,-2.4
177.313,-1.74,-1.67,-2.39
177.323,-1.38,-1.4,-2.28
177.333,-1.02,-0.84,-2.04
177.343,-0.56,-0.15,-1.64
177.353,0.06,0.49,-1.04
177.363,0.74,0.88,-0.4
177.373,1.35,0.88,0.27
177.383,1.65,0.69,0.73
177.393,1.61,0.44,0.82
177.403,1.19,0.41,0.77
177.414,0.74,0.63,0.59
177.424,0.38,0.91,0.31
177.434,0.07,1.04,0.1
177.444,-0.18,1.12,0.11
177.454,-0.47,1.18,0.1
177.464,-0.87,1.2,0.06
177.474,-1.23,1.23,-0.02
177.484,-1.48,1.33,-0.11
177.494,-1.62,1.63,-0.21
177.504,-1.65,2.09,-0.18
177.515,-1.5,2.58,-0.03
177.524,-1.21,3.08,0.26
177.535,-0.71,3.51,0.78
177.544,0.03,3.73,1.41
177.555,0.7,3.76,1.9
177.565,1.23,3.66,2.22
177.575,1.5,3.39,2.2
177.585,1.53,3.09,1.81
177.595,1.22,2.87,1.22
177.605,0.64,2.62,0.7
177.615,0.16,2.49,0.22
177.625,-0.13,2.6,-0.0
177.635,-0.31,2.72,0.06
177.645,-0.27,2.82,0.3
177.655,-0.19,2.79,0.69
177.665,-0.21,2.51,1.07
177.676,-0.3,1.98,1.18
177.686,-0.49,1.41,1.09
177.696,-0.85,0.88,0.97
177.706,-1.17,0.33,0.88
177.716,-1.41,-0.26,0.82
177.726,-1.63,-0.79,0.89
177.736,-1.78,-1.17,0.99
177.746,-1.96,-1.54,0.96
177.756,-2.15,-1.83,0.82
177.766,-2.42,-2.03,0.73
177.776,-2.54,-2.36,0.65
177.786,-2.51,-2.81,0.69
177.797,-2.29,-3.29,0.8
177.807,-2.01,-3.72,0.92
177.817,-1.7,-4.05,0.87
177.827,-1.33,-4.32,0.73
177.837,-0.99,-4.28,0.51
177.847,-0.63,-4.02,0.34
177.857,-0.21,-3.71,0.31
177.867,0.19,-3.37,0.34
177.878,0.66,-3.02,0.37
177.887,1.26,-2.67,0.24
177.898,1.75,-2.41,-0.05
177.907,2.06,-2.34,-0.4
177.918,2.13,-2.32,-0.88
177.927,2.0,-2.11,-1.39
177.938,1.72,-1.89,-1.88
177.948,1.39,-1.68,-2.24
177.958,1.18,-1.45,-2.36
177.968,0.91,-1.31,-2.17
177.978,0.73,-1.29,-1.86
177.988,0.69,-1.24,-1.39
177.998,0.63,-1.06,-0.87
178.008,0.41,-0.48,-0.37
178.018,0.05,0.4,0.06
178.028,-0.29,1.35,0.3
178.039,-0.48,2.32,0.38
178.048,-0.44,3.33,0.41
178.059,-0.09,4.14,0.43
178.069,0.48,4.52,0.48
178.079,1.02,4.54,0.54
178.089,1.53,4.23,0.5
178.099,2.02,3.86,0.43
178.109,2.29,3.47,0.31
178.119,2.29,2.94,0.21
178.129,2.2,2.29,0.07
178.139,2.09,1.55,0.05
178.149,1.97,0.84,0.04
178.159,1.87,0.15,0.01
178.169,1.79,-0.43,-0.01
178.18,1.61,-0.84,-0.09
178.19,1.42,-1.16,-0.26
178.2,1.08,-1.55,-0.45
178.21,0.73,-1.92,-0.57
178.22,0.44,-2.32,-0.54
178.23,0.2,-2.76,-0.4
178.24,-0.17,-3.15,-0.25
178.25,-0.54,-3.49,-0.05
178.26,-0.78,-3.74,0.21
178.27,-0.92,-3.87,0.62
178.28,-0.9,-3.9,1.2
178.29,-0.68,-3.64,1.67
178.301,-0.34,-3.05,1.93
178.31,0.15,-2.35,1.95
178.321,0.7,-1.67,1.83
178.331,1.24,-0.9,1.42
178.341,1.35,-0.23,0.63
178.351,1.22,0.23,-0.39
178.361,1.28,0.64,-1.33
178.371,1.51,0.88,-2.15
178.381,1.88,0.96,-2.87
178.391,2.29,0.92,-3.33
178.401,2.68,0.59,-3.45
178.411,3.07,0.11,-3.26
178.422,3.48,-0.39,-2.82
178.431,4.04,-0.88,-2.16
178.442,4.61,-1.34,-1.37
178.452,5.19,-1.77,-0.59
178.462,5.67,-2.1,0.2
178.472,5.99,-2.43,0.87
178.482,6.27,-2.75,1.33
178.492,6.52,-2.99,1.72
178.502,6.58,-3.18,2.02
178.512,6.45,-3.28,2.18
178.522,6.27,-3.26,2.21
178.532,6.02,-3.02,2.17
178.542,5.79,-2.66,2.12
178.552,5.67,-2.37,2.12
178.563,5.51,-2.2,2.09
178.573,5.21,-2.01,1.98
178.583,4.82,-1.66,1.84
178.593,4.37,-1.25,1.82
178.603,4.01,-0.96,1.86
178.613,3.81,-0.62,1.92
178.623,3.54,-0.21,1.91
178.633,3.28,0.21,1.79
178.643,3.04,0.58,1.61
178.653,2.74,0.89,1.36
178.663,2.48,1.21,1.09
178.673,2.25,1.44,0.85
178.684,2.1,1.57,0.58
178.693,2.02,1.66,0.35
178.704,1.98,1.67,0.16
178.714,2.01,1.56,0.13
178.724,2.06,1.44,0.14
178.734,2.11,1.38,0.26
178.744,2.09,1.26,0.52
178.754,2.16,1.06,0.8
178.764,2.17,0.78,1.07
178.774,2.13,0.54,1.37
178.784,2.12,0.19,1.65
178.794,2.02,-0.18,1.92
178.805,1.97,-0.42,2.15
178.814,1.78,-0.59,2.29
178.825,1.65,-0.82,2.34
178.835,1.56,-1.03,2.34
178.845,1.37,-1.11,2.33
178.855,1.13,-1.09,2.26
178.865,0.9,-1.03,2.17
178.875,0.73,-0.99,2.04
178.885,0.83,-0.92,1.96
178.895,1.05,-0.83,1.96
178.905,1.38,-0.8,2.05
178.915,1.79,-1.0,2.3
178.925,2.2,-1.4,2.93
178.935,2.51,-1.77,3.76
178.946,2.82,-1.89,4.64
178.956,3.04,-2.08,5.56
178.966,2.95,-2.23,6.39
178.976,2.61,-2.18,7.08
178.986,2.13,-2.05,7.51
178.996,1.49,-1.91,7.55
179.006,0.77,-1.73,7.22
179.016,0.19,-1.46,6.47
179.026,-0.3,-1.17,5.64
179.036,-0.51,-0.9,5.1
179.046,-0.56,-0.82,4.69
179.056,-0.33,-0.62,4.45
179.066,0.05,-0.35,4.31
179.076,0.27,-0.32,4.18
179.087,0.34,-0.38,4.12
179.097,0.44,-0.45,3.89
179.107,0.43,-0.5,3.59
179.117,0.43,-0.67,3.32
179.127,0.28,-0.8,3.04
179.137,0.01,-0.84,2.68
179.147,-0.17,-0.91,2.48
179.157,-0.26,-1.04,2.33
179.167,-0.26,-1.14,2.17
179.177,-0.4,-1.19,2.05
179.187,-0.89,-1.28,1.84
179.197,-1.42,-1.42,1.44
179.208,-1.99,-1.52,0.99
179.218,-2.46,-1.57,0.51
179.228,-2.75,-1.62,0.15
179.238,-2.92,-1.64,-0.18
179.248,-2.81,-1.63,-0.37
179.258,-2.56,-1.48,-0.41
179.268,-2.2,-1.25,-0.37
179.278,-1.88,-1.12,-0.35
179.288,-1.63,-1.09,-0.4
179.298,-1.42,-1.05,-0.43
179.309,-1.14,-1.02,-0.23
179.318,-0.83,-1.05,0.05
179.329,-0.55,-1.04,0.44
179.339,-0.38,-0.85,0.96
179.349,-0.22,-0.47,1.35
179.359,0.01,-0.11,1.69
179.369,0.28,0.21,1.98
179.379,0.45,0.41,2.18
179.389,0.55,0.55,2.17
179.399,0.49,0.56,1.91
179.409,0.27,0.51,1.5
179.419,0.08,0.52,1.06
179.429,0.09,0.54,0.74
179.439,0.23,0.52,0.56
179.45,0.44,0.38,0.41
179.459,0.7,0.06,0.2
179.47,0.95,-0.42,-0.13
179.48,0.95,-0.94,-0.53
179.49,0.69,-1.55,-1.02
