timestamp,ax,ay,az
208.195,1.83,-0.93,-2.13
208.205,2.09,-1.15,-0.87
208.215,1.96,-1.26,0.2
208.225,1.88,-1.09,-0.85
208.235,2.1,-1.21,-1.65
208.245,2.06,-1.45,-1.86
208.255,1.77,-1.56,-2.53
208.265,1.31,-1.77,-2.9
208.275,0.84,-1.98,-2.67
208.285,0.58,-2.1,-2.02
208.295,0.76,-2.01,-1.28
208.306,1.03,-1.93,-0.68
208.316,1.26,-1.84,-0.24
208.326,1.36,-1.67,0.06
208.336,1.49,-1.73,0.16
208.346,1.79,-1.8,-0.18
208.356,2.01,-1.62,-1.06
208.366,1.64,-1.7,-1.85
208.376,1.09,-2.18,-2.12
208.386,0.65,-2.85,-1.96
208.396,0.18,-3.36,-1.5
208.407,-0.1,-3.77,-0.97
208.416,-0.22,-4.45,-0.9
208.427,-0.25,-5.12,-1.21
208.437,0.07,-5.3,-2.17
208.447,0.5,-4.98,-3.46
208.457,0.93,-4.83,-4.64
208.467,1.23,-4.94,-5.38
208.477,1.47,-5.01,-5.28
208.487,1.84,-4.79,-4.56
208.497,2.23,-4.48,-3.59
208.507,2.85,-4.28,-2.97
208.517,3.32,-4.35,-2.45
208.527,3.41,-4.46,-1.83
208.537,3.24,-4.42,-1.31
208.548,3.03,-4.29,-1.33
208.558,2.72,-4.22,-1.69
208.568,2.21,-4.15,-1.98
208.578,1.64,-4.04,-2.1
208.588,1.26,-3.84,-2.2
208.598,1.08,-3.57,-2.23
208.608,0.98,-3.19,-2.06
208.618,0.84,-2.82,-1.59
208.628,0.46,-2.63,-0.99
208.638,-0.01,-2.59,-0.34
208.648,-0.41,-2.59,0.15
208.658,-0.77,-2.49,0.81
208.669,-0.94,-2.09,1.58
208.679,-0.73,-1.4,2.2
208.689,-0.13,-0.52,2.41
208.699,0.85,0.58,2.22
208.709,1.9,1.79,1.94
208.719,2.56,2.85,1.91
208.729,3.38,3.9,1.98
208.739,4.87,5.16,1.89
208.749,6.38,6.47,1.89
208.759,7.2,7.38,2.32
208.769,7.26,7.69,3.22
208.779,6.44,7.47,3.95
208.789,5.43,6.96,4.48
208.799,4.42,6.21,4.71
208.809,3.51,5.43,4.66
208.82,2.53,4.92,4.35
208.83,1.72,4.77,3.72
208.84,1.17,4.69,3.06
208.85,0.95,4.77,2.45
208.86,0.99,4.79,1.93
208.87,1.11,4.61,1.73
208.88,1.01,4.19,1.88
208.89,0.82,3.59,1.99
208.9,0.51,2.96,1.99
208.91,0.37,2.37,1.88
208.92,0.38,1.95,1.44
208.93,0.3,1.37,0.89
208.941,0.18,0.61,0.24
208.951,-0.04,-0.05,-0.41
208.96,-0.33,-0.52,-0.98
208.971,-0.61,-0.92,-1.32
208.981,-0.59,-1.2,-1.62
208.991,-0.33,-1.31,-1.95
209.001,-0.18,-1.47,-1.84
209.011,-0.39,-2.0,-2.45
209.021,-0.51,-2.34,-3.2
209.031,-0.59,-2.37,-3.49
209.041,-0.48,-2.27,-3.66
209.051,-0.25,-2.24,-3.74
209.061,0.14,-2.23,-3.76
209.072,0.6,-2.11,-3.68
209.081,0.9,-1.9,-3.41
209.092,0.96,-1.61,-3.12
209.102,1.11,-1.2,-3.07
209.112,1.39,-0.76,-3.33
209.122,1.61,-0.33,-3.9
209.132,1.44,-0.14,-4.43
209.142,1.18,-0.24,-4.81
209.152,0.97,-0.32,-4.89
209.162,0.39,-0.29,-4.74
209.172,-0.24,-0.26,-4.46
209.182,-0.46,0.03,-4.25
209.192,-0.19,0.68,-4.13
209.202,0.25,1.57,-4.21
209.213,1.24,2.52,-4.15
209.223,1.62,3.31,-4.23
209.233,1.35,3.6,-4.13
209.243,0.99,3.38,-3.23
209.253,0.72,2.86,-1.95
209.263,0.29,2.17,-0.85
209.273,-0.61,1.51,-0.14
209.283,-1.6,1.05,-0.14
209.293,-2.39,0.97,-0.74
209.303,-3.03,1.22,-1.64
209.313,-3.41,1.57,-2.49
209.323,-2.85,1.88,-2.92
209.334,-1.5,2.42,-2.9
209.344,-0.37,3.25,-2.55
209.354,0.16,4.08,-1.94
209.364,0.34,4.68,-1.27
209.374,0.59,5.26,-0.69
209.384,0.84,5.9,-0.18
209.394,0.89,6.57,0.31
209.404,0.53,6.94,0.56
209.414,0.29,6.57,1.05
209.424,0.03,5.66,1.81
209.435,0.09,4.62,2.79
209.444,0.97,3.85,3.66
209.455,1.79,3.84,4.34
209.465,2.17,4.26,4.92
209.475,2.78,4.56,5.72
209.485,3.62,4.62,6.29
209.495,4.98,4.56,6.39
209.505,6.24,4.67,6.42
209.515,6.05,4.61,6.65
209.525,5.26,3.99,6.87
209.535,4.66,3.05,6.87
209.545,4.2,2.21,6.89
209.555,3.83,1.47,7.07
209.565,3.43,0.9,7.23
209.575,2.99,0.63,7.21
209.585,2.65,0.45,7.0
209.596,2.52,0.26,6.76
209.606,2.15,0.17,6.5
209.616,1.7,-0.08,6.37
209.626,1.2,-0.59,6.28
209.636,0.65,-1.13,6.13
209.646,0.15,-1.63,5.92
209.656,-0.38,-2.08,5.77
209.666,-0.47,-2.4,5.91
209.676,-0.42,-2.66,6.37
209.686,-0.75,-2.75,6.76
209.696,-1.04,-2.69,6.85
209.707,-1.17,-2.75,6.55
209.717,-0.93,-3.14,6.08
209.727,-0.46,-3.57,5.64
209.737,-0.26,-3.76,5.31
209.747,-0.37,-3.74,5.05
209.757,-0.47,-3.73,4.75
209.767,-0.42,-3.97,4.43
209.777,-0.39,-4.49,4.15
209.787,-0.45,-5.09,3.88
209.797,-0.68,-5.46,3.61
209.807,-0.85,-5.6,3.5
209.817,-0.92,-5.66,3.63
209.827,-0.84,-5.81,3.95
209.838,-0.63,-6.18,4.38
209.848,-0.7,-6.6,4.61
209.858,-1.03,-6.84,4.7
209.868,-1.09,-7.24,4.76
209.878,-0.22,-7.69,4.32
209.888,1.08,-7.54,3.38
209.898,1.87,-6.78,1.58
209.908,2.31,-6.4,-1.05
209.918,2.31,-6.74,-4.08
209.928,2.42,-7.3,-7.05
209.938,3.0,-7.51,-10.15
209.948,3.57,-6.89,-12.22
209.958,4.59,-5.06,-12.71
209.968,6.29,-2.57,-12.47
209.979,7.14,-0.86,-12.79
209.989,7.21,0.13,-12.19
209.999,6.23,0.7,-11.53
210.009,5.38,1.21,-11.2
210.019,4.93,2.22,-10.59
210.029,5.23,3.69,-9.98
210.039,5.61,5.15,-9.42
210.049,5.58,6.44,-8.75
210.059,6.06,7.53,-7.94
210.069,6.43,8.12,-6.54
210.079,5.75,8.11,-4.76
210.09,4.61,7.59,-2.83
210.1,3.35,6.89,-0.62
210.11,2.18,6.27,1.57
210.12,1.3,5.86,3.7
210.13,0.57,5.57,5.44
210.14,-0.28,5.21,6.39
210.15,-0.82,4.71,6.88
210.16,-1.12,4.42,6.85
210.17,-1.05,4.53,6.7
210.18,-0.76,4.73,6.65
210.19,-0.69,4.83,6.93
210.2,-0.63,4.74,7.63
210.21,-0.62,4.43,8.26
210.221,-0.78,3.93,8.68
210.231,-1.12,3.42,9.04
210.241,-1.33,2.93,9.32
210.251,-1.57,2.57,9.42
210.261,-1.66,2.31,9.06
210.271,-1.6,2.19,8.33
210.281,-1.57,2.18,7.58
210.291,-1.62,2.13,7.04
210.301,-1.51,2.1,6.66
210.311,-1.11,2.33,6.48
210.321,-0.47,2.81,6.39
210.331,-0.05,3.3,6.32
210.341,0.01,3.43,6.13
210.351,-0.04,3.48,5.63
210.362,-0.13,3.72,4.95
210.372,-0.03,3.87,4.06
210.382,0.05,4.01,2.96
210.392,-0.1,4.14,1.89
210.402,-0.15,4.15,0.85
210.412,0.13,4.02,-0.17
210.422,0.79,3.82,-1.15
210.432,1.6,4.0,-2.33
210.442,1.5,3.89,-3.37
210.452,1.33,3.19,-3.88
210.462,1.26,2.46,-4.12
210.472,1.06,1.71,-4.27
210.483,0.82,1.06,-4.01
210.493,0.57,0.55,-3.27
210.503,0.43,0.2,-2.19
210.513,0.32,-0.16,-0.91
210.523,0.58,-0.62,0.22
210.533,1.11,-1.08,1.16
210.543,1.47,-1.41,1.79
210.553,1.46,-1.59,1.94
210.563,1.38,-1.66,1.43
210.573,1.04,-1.85,0.48
210.583,0.67,-2.18,-0.61
210.593,0.22,-2.37,-1.64
210.603,-0.27,-2.39,-2.21
210.613,-0.46,-2.35,-2.41
210.624,-0.47,-2.35,-2.46
210.634,-0.28,-2.39,-2.49
210.644,-0.15,-2.48,-2.5
210.654,-0.02,-2.48,-2.54
210.664,0.26,-2.29,-2.67
210.674,0.53,-2.04,-2.86
210.684,0.61,-1.9,-3.11
210.694,0.61,-1.76,-3.24
210.704,0.69,-1.59,-3.15
210.714,0.9,-1.44,-2.81
210.724,1.03,-1.36,-2.35
210.734,1.11,-1.42,-1.99
210.745,1.25,-1.57,-1.75
210.755,1.41,-1.83,-1.54
210.765,1.51,-2.08,-1.43
210.775,1.55,-2.26,-1.46
210.785,1.47,-2.43,-1.56
210.795,1.37,-2.65,-1.71
210.805,1.14,-2.92,-1.89
210.815,0.89,-3.27,-2.03
210.825,0.54,-3.74,-2.05
210.835,0.05,-4.15,-1.87
210.845,-0.32,-4.43,-1.72
210.855,-0.7,-4.65,-1.56
210.866,-1.1,-4.82,-1.38
210.875,-1.43,-4.94,-1.21
210.886,-1.83,-5.11,-0.96
210.896,-1.92,-5.22,-0.78
210.906,-1.84,-5.14,-0.66
210.916,-1.83,-4.88,-0.4
210.926,-1.3,-4.69,0.57
210.936,-1.5,-4.55,1.19
210.946,-2.54,-4.24,0.68
210.956,-2.13,-3.78,1.09
210.966,-1.54,-3.18,1.87
210.976,-0.84,-2.08,2.91
210.986,0.27,-0.46,4.14
210.996,1.77,1.14,5.3
211.007,3.49,2.45,6.22
211.017,5.16,3.59,6.48
211.027,5.96,4.23,6.19
211.037,6.21,4.39,5.48
211.047,6.33,4.44,4.39
211.057,6.43,4.72,3.31
211.067,6.54,5.23,2.17
211.077,6.56,5.54,1.2
211.087,6.39,5.46,0.48
211.097,5.81,4.91,0.16
211.107,4.79,3.97,0.48
211.117,3.5,2.98,1.05
211.128,2.4,2.01,1.63
211.138,1.57,1.41,2.03
211.148,1.31,1.15,2.17
211.158,1.52,0.79,1.95
211.168,1.68,0.47,1.5
211.178,1.38,0.24,1.11
211.188,0.91,-0.24,0.76
211.198,0.35,-0.69,0.35
211.208,-0.01,-0.97,0.01
211.218,0.07,-1.08,-0.31
211.228,0.29,-0.92,-0.54
211.238,0.76,-0.65,-0.92
211.248,1.02,-0.53,-1.38
211.258,0.82,-0.64,-1.65
211.269,0.52,-0.85,-1.82
211.279,0.14,-1.15,-1.78
211.289,-0.07,-1.53,-1.5
211.299,-0.07,-1.69,-1.42
211.309,-0.04,-1.71,-1.55
211.319,-0.02,-1.89,-1.89
211.329,0.29,-2.07,-2.39
211.339,0.63,-2.16,-2.97
211.349,0.59,-2.2,-3.46
211.359,0.45,-2.24,-3.83
211.369,0.34,-2.35,-4.1
211.379,0.19,-2.53,-4.28
211.39,-0.08,-2.76,-4.28
211.402,-0.2,-2.92,-4.34
211.41,-0.12,-2.78,-4.57
211.42,0.27,-2.29,-4.67
211.43,0.91,-1.67,-4.68
211.44,1.52,-1.03,-4.67
211.45,1.62,-0.55,-4.36
211.46,1.35,0.21,-4.19
211.47,0.87,0.85,-4.69
211.48,-0.02,1.12,-5.18
211.49,-1.02,1.3,-5.3
211.5,-1.82,1.64,-5.0
211.511,-2.03,2.19,-4.66
211.521,-1.4,3.01,-4.59
211.531,-0.62,3.82,-4.21
211.541,0.08,4.16,-2.66
211.551,0.48,4.01,-0.38
211.561,0.82,3.83,2.01
211.571,1.12,4.48,4.77
211.581,1.35,5.56,6.68
211.591,2.1,6.07,7.04
211.601,3.08,6.05,6.51
211.611,3.61,5.68,5.83
211.621,4.05,4.97,5.32
211.631,4.33,4.15,5.06
211.641,4.3,3.44,4.94
211.652,3.98,3.05,5.04
211.662,3.23,2.71,5.34
211.672,2.24,2.16,5.27
211.682,1.15,1.42,4.8
211.692,0.2,0.72,4.31
211.702,-0.5,0.18,3.93
211.712,-1.02,-0.21,3.6
211.722,-1.29,-0.51,3.23
211.735,-1.54,-0.77,2.84
211.742,-1.42,-1.06,2.55
211.752,-0.86,-1.31,2.5
211.762,-0.4,-1.7,2.58
211.773,-0.18,-2.26,2.84
211.782,-0.36,-2.86,3.17
211.793,-0.88,-3.25,3.58
211.803,-1.16,-3.45,3.5
211.813,-1.32,-3.44,2.95
211.823,-1.37,-3.02,2.22
211.833,-0.76,-2.53,1.48
211.843,-0.15,-2.64,1.05
211.853,-0.65,-3.21,1.48
211.863,-1.26,-3.68,2.31
211.873,-0.91,-3.58,3.06
211.883,-0.35,-2.9,3.51
211.894,0.19,-2.25,3.7
211.904,0.74,-1.63,3.77
211.914,1.28,-1.05,3.61
211.924,1.76,-0.51,3.56
211.934,2.05,-0.05,3.82
211.944,2.21,-0.13,4.43
211.954,2.05,-0.52,5.62
211.964,1.4,-0.84,6.76
211.974,0.39,-1.11,7.34
211.984,-0.59,-1.35,7.59
211.994,-1.52,-1.58,7.72
212.004,-2.31,-1.83,7.72
212.015,-2.68,-1.88,7.57
212.024,-2.88,-1.62,7.2
212.035,-2.87,-1.3,6.87
212.045,-2.69,-1.23,6.77
212.055,-2.52,-1.3,6.62
212.065,-2.88,-1.15,6.55
212.075,-3.6,-1.0,6.14
212.085,-3.9,-0.97,5.27
212.095,-3.67,-0.94,4.35
212.105,-3.46,-0.73,3.82
212.115,-3.1,-0.26,3.58
212.125,-2.99,0.28,3.34
212.135,-3.03,0.61,2.87
212.145,-2.07,1.01,2.46
212.156,-0.94,1.71,2.48
212.166,-0.4,2.2,2.75
212.176,0.28,1.85,2.3
212.186,1.16,0.96,0.94
212.196,3.22,-0.56,2.08
212.206,4.4,-2.07,-0.26
212.216,5.83,-2.93,-3.77
212.226,6.97,-6.35,-3.75
212.236,8.69,-10.48,-4.17
212.246,7.9,-13.38,-5.29
212.257,7.18,-14.44,-6.43
212.267,7.2,-14.79,-8.84
212.277,6.91,-14.09,-11.7
212.286,5.8,-11.65,-14.22
212.297,4.5,-8.83,-14.9
212.307,2.77,-6.41,-12.72
212.317,0.93,-4.9,-8.8
212.327,-0.57,-4.48,-4.25
212.337,-2.43,-4.65,-0.97
212.347,-3.88,-4.5,1.44
212.357,-4.59,-3.79,2.68
212.367,-4.61,-3.3,3.9
212.377,-3.91,-3.16,5.01
212.387,-3.33,-2.78,5.47
212.397,-2.84,-2.06,5.04
212.407,-2.56,-0.96,3.9
212.418,-2.44,0.16,2.62
212.428,-2.66,0.91,1.79
212.438,-3.05,1.27,1.45
212.448,-3.39,1.5,1.1
212.458,-3.57,1.77,0.52
212.468,-3.74,1.91,-0.09
212.478,-3.73,2.16,-0.62
212.488,-3.47,2.42,-1.03
212.498,-3.26,2.65,-1.37
212.508,-2.87,2.93,-1.65
212.518,-2.5,3.34,-1.77
212.528,-2.05,3.63,-1.82
212.539,-1.68,3.7,-2.03
212.549,-1.48,3.79,-2.31
212.559,-1.35,3.71,-2.55
212.569,-1.29,3.52,-2.68
212.579,-1.38,3.17,-3.08
212.589,-1.45,2.6,-3.67
212.599,-1.38,2.11,-4.19
212.609,-1.26,1.92,-4.57
212.619,-0.93,1.94,-4.63
212.629,-0.14,2.05,-4.89
212.639,0.7,1.86,-5.04
212.649,1.56,1.33,-5.0
212.659,2.73,0.54,-5.04
212.669,4.05,-0.68,-4.68
212.679,5.36,-2.34,-4.08
212.689,6.47,-4.22,-3.61
212.7,7.51,-6.17,-3.68
212.71,8.43,-7.93,-3.78
212.72,9.52,-9.23,-4.87
212.73,10.42,-9.99,-6.65
212.74,10.71,-10.27,-8.3
212.75,11.45,-10.19,-9.91
212.76,10.98,-10.54,-9.73
212.77,11.31,-10.72,-9.36
212.78,11.35,-9.56,-9.62
212.79,11.1,-7.75,-9.56
212.801,11.46,-6.02,-9.65
212.81,11.19,-4.7,-10.86
212.821,11.24,-4.15,-11.49
212.831,12.7,-5.15,-11.16
212.841,15.14,-7.4,-9.27
212.851,16.29,-9.61,-5.34
212.861,15.76,-10.02,-2.38
212.871,14.84,-9.25,-1.46
212.881,13.98,-8.66,-1.31
212.891,12.93,-8.65,-0.95
212.901,12.03,-9.23,-0.72
212.911,11.3,-10.13,-0.31
212.922,10.79,-10.7,0.25
212.934,11.01,-11.02,0.86
212.942,12.07,-11.6,1.37
212.951,13.43,-12.08,1.58
212.962,13.97,-12.26,1.92
212.972,14.27,-12.38,2.26
212.982,14.38,-12.55,2.49
212.992,14.13,-12.68,2.9
213.002,13.93,-12.79,3.7
213.012,13.75,-12.83,4.6
213.022,13.47,-12.79,5.37
213.032,13.21,-12.77,6.36
213.043,12.91,-12.74,7.62
213.053,12.46,-12.62,8.89
213.063,11.75,-12.29,9.95
213.073,10.99,-11.96,10.66
213.083,10.32,-11.61,11.17
213.093,9.88,-10.98,11.34
213.103,9.51,-10.07,11.59
213.113,9.14,-9.03,12.22
213.123,8.85,-7.83,12.91
213.133,8.6,-6.54,13.56
213.143,8.11,-5.11,14.26
213.153,7.66,-3.81,14.53
213.163,7.49,-2.89,14.31
213.173,6.86,-2.14,13.93
213.184,5.69,-1.16,13.64
