timestamp,ax,ay,az
195.102,-4.69,-0.91,1.45
195.112,-5.28,-1.27,1.49
195.122,-5.69,-1.55,1.46
195.132,-6.01,-1.7,1.3
195.142,-6.24,-1.77,1.05
195.152,-6.28,-1.71,0.63
195.162,-6.27,-1.51,0.01
195.172,-6.27,-1.07,-0.63
195.182,-6.26,-0.16,-1.27
195.192,-6.08,1.01,-1.55
195.205,-5.07,2.35,-1.25
195.213,-3.27,3.65,-0.32
195.223,-1.11,4.74,0.86
195.233,1.08,5.59,1.86
195.243,3.02,6.02,2.37
195.253,4.09,6.12,2.3
195.263,4.37,5.85,1.62
195.273,4.16,5.3,0.65
195.283,3.82,4.74,-0.06
195.293,3.54,3.99,-0.22
195.303,3.39,3.24,0.04
195.313,3.37,2.58,0.52
195.323,3.16,1.71,0.94
195.334,2.82,0.66,1.15
195.343,2.42,-0.37,1.37
195.354,2.0,-1.3,1.49
195.364,1.63,-2.1,1.51
195.374,1.35,-2.71,1.43
195.384,1.16,-3.28,1.29
195.394,1.1,-3.75,1.09
195.404,1.06,-4.04,0.81
195.414,0.94,-4.27,0.5
195.424,0.9,-4.45,0.24
195.434,0.85,-4.45,-0.01
195.444,0.84,-4.3,-0.17
195.454,0.98,-4.05,-0.14
195.464,1.38,-3.86,0.11
195.475,2.2,-3.46,0.51
195.485,2.68,-2.9,1.41
195.495,3.21,-2.54,2.43
195.505,3.82,-2.29,3.37
195.515,4.27,-1.92,4.32
195.525,4.56,-1.54,5.1
195.535,4.56,-1.09,5.72
195.545,4.45,-0.55,6.16
195.555,4.37,-0.1,6.27
195.565,4.21,0.31,6.0
195.575,3.87,0.7,5.73
195.585,3.39,1.08,5.46
195.596,3.0,1.44,5.15
195.606,2.51,1.93,4.69
195.616,1.72,2.65,3.98
195.626,0.87,3.66,3.08
195.636,0.12,4.73,2.03
195.646,-0.48,5.62,1.03
195.656,-0.98,6.42,0.14
195.666,-1.69,7.1,-0.64
195.676,-2.71,7.54,-1.26
195.686,-3.55,7.66,-1.74
195.696,-4.25,7.56,-2.01
195.706,-4.51,7.13,-2.1
195.717,-4.61,6.35,-1.98
195.726,-4.52,5.35,-1.56
195.737,-3.81,4.23,-1.24
195.747,-3.43,3.1,-1.05
195.757,-3.17,2.06,-0.83
195.767,-2.92,0.88,-0.61
195.777,-2.92,-0.18,-0.29
195.787,-2.88,-0.9,-0.08
195.797,-2.77,-1.47,0.01
195.807,-2.71,-1.93,0.04
195.817,-2.73,-2.28,0.06
195.827,-2.76,-2.65,-0.07
195.837,-2.82,-2.95,-0.35
195.847,-2.83,-3.14,-0.73
195.858,-2.74,-3.32,-1.08
195.868,-2.57,-3.54,-1.35
195.878,-2.25,-3.73,-1.54
195.888,-1.7,-3.93,-1.58
195.898,-0.87,-4.1,-1.53
195.908,0.12,-4.13,-1.41
195.918,1.08,-4.09,-1.4
195.928,1.91,-4.34,-1.25
195.938,3.08,-4.59,-1.23
195.948,4.19,-4.52,-0.92
195.958,5.32,-4.38,-0.26
195.968,6.51,-4.11,0.32
195.979,7.41,-3.92,1.14
195.989,8.2,-3.73,1.96
195.999,8.9,-3.42,2.68
196.009,9.48,-2.98,3.43
196.019,9.98,-2.39,4.12
196.029,10.19,-1.84,4.34
196.039,10.07,-1.38,4.0
196.049,9.32,-1.16,3.36
196.059,8.31,-1.16,2.61
196.069,7.23,-1.27,2.13
196.079,6.26,-1.46,1.92
196.089,5.38,-1.59,1.89
196.099,4.57,-1.38,1.81
196.109,4.05,-0.77,1.53
196.12,3.47,0.04,1.33
196.13,2.84,0.73,1.06
196.14,2.24,1.41,0.62
196.15,1.2,1.93,0.17
196.16,-0.1,2.22,-0.23
196.17,-1.32,2.39,-0.43
196.18,-2.35,2.48,-0.47
196.19,-3.13,2.5,-0.33
196.2,-3.74,2.54,-0.12
196.21,-3.99,2.72,0.14
196.22,-3.85,2.86,0.34
196.23,-3.47,3.21,0.4
196.241,-3.07,3.6,0.2
196.251,-3.03,3.7,-0.29
196.261,-3.23,3.72,-0.91
196.271,-3.4,3.69,-1.53
196.281,-3.53,3.41,-1.94
196.291,-3.5,3.02,-1.99
196.301,-3.09,2.38,-1.92
196.311,-2.39,1.9,-1.97
196.321,-1.98,1.64,-2.05
196.331,-1.67,1.26,-2.18
196.342,-1.36,0.97,-2.45
196.351,-1.21,0.81,-2.78
196.362,-1.17,0.48,-3.21
196.372,-1.19,0.0,-3.45
196.382,-1.14,-0.5,-3.58
196.392,-1.05,-1.06,-3.65
196.402,-0.8,-1.58,-3.64
196.412,-0.42,-2.03,-3.52
196.422,-0.02,-2.41,-3.33
196.432,0.34,-2.82,-3.16
196.442,0.74,-3.21,-3.09
196.452,1.05,-3.56,-3.05
196.462,1.33,-3.89,-2.97
196.472,1.69,-4.3,-2.9
196.483,2.33,-4.75,-2.84
196.493,2.97,-5.14,-2.63
196.503,3.44,-5.27,-2.32
196.513,3.73,-5.09,-2.0
196.523,3.97,-4.64,-1.94
196.533,4.44,-3.94,-2.12
196.543,5.3,-3.07,-2.51
196.553,6.02,-2.27,-2.99
196.563,6.03,-1.63,-3.2
196.573,5.7,-0.96,-3.48
196.583,5.05,-0.2,-3.71
196.593,3.95,0.7,-3.81
196.603,3.06,1.8,-3.82
196.614,2.53,3.03,-3.75
196.624,1.98,4.26,-3.43
196.634,1.48,5.49,-2.99
196.644,0.97,6.42,-2.73
196.654,0.56,7.0,-2.48
196.664,0.21,7.61,-2.33
196.674,-0.18,8.05,-2.2
196.684,-0.59,8.13,-2.1
196.694,-1.16,7.82,-1.93
196.704,-1.7,7.0,-1.69
196.714,-2.12,5.94,-1.39
196.725,-2.61,4.91,-1.01
196.734,-3.03,3.84,-0.63
196.745,-3.3,2.73,-0.29
196.755,-3.48,1.73,0.03
196.765,-3.56,0.92,0.24
196.775,-3.42,0.43,0.26
196.785,-3.45,0.12,0.18
196.795,-3.41,-0.22,0.12
196.805,-3.34,-0.54,0.14
196.815,-3.47,-0.74,0.27
196.825,-3.6,-0.98,0.44
196.835,-3.44,-1.43,0.52
196.845,-3.12,-1.84,0.69
196.855,-2.92,-2.2,0.92
196.866,-2.78,-2.61,1.16
196.876,-2.71,-3.13,1.38
196.886,-2.53,-3.61,1.57
196.896,-2.07,-3.7,1.58
196.906,-1.27,-3.46,1.44
196.916,-0.51,-3.13,1.38
196.926,0.13,-3.03,1.48
196.936,0.78,-3.17,1.64
196.946,1.36,-3.53,2.06
196.956,2.04,-3.82,2.6
196.966,2.74,-4.08,3.21
196.976,3.42,-4.31,3.89
196.986,4.06,-4.46,4.48
196.997,4.71,-4.45,5.0
197.007,5.27,-4.36,5.41
197.017,5.94,-4.21,5.61
197.027,6.57,-4.12,5.58
197.037,7.08,-4.27,5.36
197.047,7.31,-4.62,4.9
197.057,7.02,-4.91,4.38
197.067,6.49,-4.96,3.76
197.077,5.88,-4.78,3.1
197.087,5.35,-4.3,2.52
197.097,4.86,-3.53,2.04
197.107,4.41,-2.7,1.33
197.117,3.82,-1.98,0.51
197.128,3.24,-1.46,-0.28
197.138,2.63,-1.13,-1.12
197.148,1.9,-0.72,-1.93
197.158,1.26,-0.01,-2.73
197.168,0.76,0.85,-3.54
197.178,-0.03,1.56,-4.25
197.188,-0.88,2.34,-4.96
197.198,-1.55,3.09,-5.5
197.208,-2.08,3.84,-5.85
197.218,-2.28,4.51,-6.07
197.228,-2.17,5.08,-5.96
197.238,-1.88,5.41,-5.48
197.249,-1.52,5.29,-4.87
197.259,-1.36,4.76,-4.11
197.269,-1.35,3.87,-3.33
197.279,-1.45,2.9,-2.61
197.289,-1.38,2.21,-1.9
197.299,-1.09,1.88,-1.36
197.309,-0.71,1.84,-1.02
197.319,-0.49,1.96,-0.79
197.329,-0.56,1.87,-0.63
197.339,-0.89,1.35,-0.57
197.349,-1.33,0.6,-0.47
197.359,-1.56,-0.11,-0.34
197.369,-1.7,-0.58,-0.26
197.38,-1.66,-0.9,-0.17
197.39,-1.36,-0.96,-0.07
197.4,-1.06,-0.53,0.34
197.41,-0.56,-0.21,1.03
197.42,0.28,0.09,2.02
197.43,1.09,0.63,3.45
197.44,1.93,1.13,5.03
197.45,2.65,1.58,6.47
197.46,3.37,2.07,7.68
197.47,3.96,2.4,8.56
197.48,4.31,2.68,9.09
197.49,4.51,2.93,9.36
197.5,4.35,2.95,9.55
197.51,3.92,2.67,9.84
197.521,3.47,2.27,10.25
197.531,3.02,1.66,10.68
197.541,2.48,0.89,10.82
197.551,1.98,0.4,10.51
197.561,1.67,0.37,9.68
197.571,1.21,0.66,8.64
197.581,0.81,1.15,7.29
197.591,0.44,1.71,5.65
197.601,-0.34,2.21,4.17
197.611,-0.99,2.82,2.79
197.621,-1.19,3.56,1.44
197.632,-1.25,4.37,0.26
197.641,-1.14,5.24,-0.9
197.652,-0.9,5.68,-2.01
197.662,-0.95,5.77,-3.07
197.672,-1.0,5.75,-4.04
197.682,-1.02,5.51,-4.98
197.692,-1.15,4.97,-5.68
197.702,-1.3,4.09,-5.93
197.712,-1.47,3.06,-5.97
197.722,-1.68,1.97,-5.73
197.732,-1.99,0.82,-5.17
197.742,-2.28,-0.34,-4.51
197.753,-2.42,-1.21,-3.75
197.762,-2.43,-1.86,-2.89
197.773,-2.28,-2.37,-2.0
197.783,-1.8,-2.68,-1.21
197.793,-1.18,-2.72,-0.69
197.803,-0.91,-2.72,-0.25
197.813,-0.78,-2.73,0.06
197.823,-0.62,-2.71,0.26
197.833,-0.26,-2.87,0.51
197.843,0.25,-3.08,0.77
197.853,0.7,-3.21,1.07
197.863,1.3,-3.26,1.2
197.873,1.81,-3.22,1.23
197.883,2.16,-3.21,1.24
197.893,2.5,-3.24,1.17
197.903,2.89,-3.28,1.08
197.914,3.11,-3.2,1.11
197.924,3.37,-3.31,1.2
197.934,3.73,-3.53,1.43
197.944,4.09,-3.72,1.8
197.954,4.47,-3.81,2.01
197.964,4.72,-3.92,2.12
197.974,4.7,-4.12,2.12
197.984,4.49,-4.42,1.98
197.994,3.92,-4.87,1.86
198.004,3.3,-5.45,1.68
198.014,2.72,-6.11,1.55
198.024,2.32,-6.65,1.41
198.035,2.07,-7.0,1.29
198.045,2.0,-7.09,1.08
198.055,2.14,-6.79,0.74
198.065,2.37,-6.07,0.2
198.075,2.76,-5.15,-0.46
198.085,3.64,-4.18,-1.35
198.095,4.57,-3.06,-2.23
198.105,5.16,-2.04,-2.82
198.115,5.76,-1.46,-3.15
198.125,6.17,-1.06,-3.26
198.135,6.66,-0.46,-2.89
198.145,7.19,0.56,-2.44
198.156,7.27,1.72,-2.0
198.166,6.81,2.77,-1.76
198.176,6.02,3.66,-1.82
198.186,4.97,4.4,-2.23
198.196,3.61,5.01,-2.85
198.206,2.42,5.41,-3.55
198.216,1.4,5.52,-4.04
198.226,0.52,5.45,-4.08
198.236,-0.21,5.25,-3.8
198.246,-1.08,4.9,-3.27
198.256,-1.8,4.53,-2.46
198.266,-2.44,4.35,-1.49
198.276,-3.14,4.23,-0.54
198.287,-3.78,4.09,0.31
198.297,-4.14,4.13,1.02
198.307,-4.39,4.1,1.5
198.317,-4.69,3.87,1.79
198.327,-5.05,3.49,2.06
198.337,-5.16,2.85,2.18
198.347,-5.04,2.1,2.28
198.357,-4.8,1.34,2.44
198.367,-4.49,0.52,2.7
198.377,-4.08,-0.26,2.91
198.387,-3.8,-0.95,2.83
198.398,-3.67,-1.46,2.35
198.407,-3.58,-1.77,1.46
198.418,-3.44,-2.09,0.65
198.427,-3.3,-2.36,-0.13
198.438,-3.09,-2.54,-0.78
198.448,-2.41,-2.37,-1.31
198.458,-1.61,-1.98,-1.77
198.468,-0.73,-1.6,-2.11
198.478,-0.13,-1.3,-2.56
198.488,0.23,-1.19,-3.16
198.498,0.69,-1.14,-3.75
198.508,1.28,-1.09,-4.12
198.518,1.97,-0.96,-4.35
198.528,2.67,-0.69,-4.61
198.539,3.21,-0.21,-4.83
198.549,3.72,0.31,-5.04
198.559,4.12,0.96,-5.14
198.569,4.52,1.78,-5.23
198.579,4.86,2.72,-5.29
198.589,5.11,3.58,-5.25
198.599,4.94,4.28,-5.23
198.609,4.22,4.65,-5.33
198.619,3.06,4.69,-5.24
198.629,2.12,4.72,-4.92
198.639,1.31,4.66,-4.46
198.649,0.64,4.61,-3.93
198.66,0.25,4.57,-3.32
198.669,-0.02,4.36,-2.72
198.68,-0.39,3.92,-2.07
198.69,-0.85,3.24,-1.48
198.7,-1.42,2.33,-1.0
198.71,-1.84,1.46,-0.69
198.72,-2.23,0.65,-0.47
198.73,-2.6,-0.19,-0.1
198.74,-2.64,-1.04,0.38
198.75,-2.44,-1.71,0.82
198.76,-2.2,-2.38,1.21
198.77,-2.04,-2.89,1.48
198.78,-1.94,-3.26,1.58
198.79,-2.0,-3.47,1.51
198.801,-2.32,-3.78,1.47
198.811,-2.61,-4.15,1.44
198.821,-2.58,-4.27,1.41
198.831,-2.32,-3.92,1.39
198.841,-1.5,-3.42,1.42
198.852,-0.24,-2.8,1.51
198.861,0.8,-1.9,1.7
198.871,1.49,-0.99,1.88
198.881,1.88,-0.18,1.99
198.891,2.2,0.45,2.1
198.901,2.55,0.81,2.26
198.911,2.77,1.02,2.6
198.922,2.88,0.99,2.94
198.932,2.96,0.69,3.26
198.942,2.99,0.39,3.54
198.952,3.02,0.07,3.75
198.962,3.05,-0.33,3.84
198.972,2.97,-0.73,3.81
198.982,2.9,-1.1,3.58
198.992,2.79,-1.42,3.28
199.002,2.53,-1.73,2.88
199.012,2.12,-1.98,2.43
199.022,1.38,-2.3,2.13
199.032,0.61,-2.82,1.95
199.043,-0.14,-3.43,1.85
199.052,-0.84,-4.09,1.82
199.063,-1.57,-4.74,1.88
199.073,-2.27,-5.36,1.96
199.083,-2.93,-5.96,1.92
199.093,-3.59,-6.44,1.89
199.103,-3.93,-6.62,1.83
199.113,-4.19,-6.52,1.54
199.123,-4.39,-6.15,0.92
199.133,-4.61,-5.72,0.07
199.143,-4.8,-5.19,-1.06
199.153,-4.92,-4.44,-2.31
199.163,-4.97,-3.42,-3.3
199.173,-4.36,-2.1,-4.13
199.184,-2.87,-0.71,-4.51
199.194,-0.36,0.8,-4.21
199.204,2.72,2.59,-3.55
199.214,5.13,4.16,-2.71
199.224,6.47,5.27,-1.94
199.234,6.69,6.15,-1.41
199.244,6.51,6.82,-1.43
199.254,6.2,7.12,-1.68
199.264,5.81,7.25,-1.79
199.274,5.44,7.3,-1.8
199.284,4.85,6.97,-1.63
199.294,4.11,6.24,-1.32
199.305,3.52,5.48,-0.94
199.314,3.01,4.74,-0.42
199.325,2.55,4.03,0.03
199.335,2.18,3.45,0.39
199.345,1.72,2.93,0.58
199.355,1.4,2.43,0.7
199.365,1.17,2.03,0.99
199.375,1.15,1.78,1.44
199.385,1.13,1.45,2.16
199.395,1.25,1.11,2.94
199.405,1.26,0.7,3.72
199.417,1.22,0.23,4.44
199.426,1.32,-0.18,5.26
199.435,1.78,-0.27,5.95
199.446,2.15,-0.2,6.57
199.456,2.47,-0.14,6.96
199.466,2.43,-0.31,7.34
199.476,2.18,-0.56,7.75
199.486,1.76,-0.78,8.09
199.496,1.4,-1.04,8.39
199.506,1.09,-1.21,8.58
199.516,0.76,-1.16,8.42
199.526,0.36,-0.96,7.91
199.536,-0.28,-0.51,7.2
199.546,-0.83,0.45,6.36
199.556,-1.18,1.48,5.6
199.567,-1.26,2.42,4.74
199.577,-1.37,3.2,3.94
199.587,-1.3,3.84,3.1
199.597,-1.17,4.32,2.06
199.607,-1.16,4.47,0.91
199.617,-1.21,4.3,-0.16
199.627,-1.26,3.93,-1.03
199.637,-1.3,3.49,-1.56
199.647,-1.24,3.11,-1.94
199.657,-0.95,2.79,-2.19
199.667,-0.54,2.52,-2.27
199.677,-0.19,2.09,-2.18
199.688,0.01,1.47,-2.0
199.698,0.13,0.76,-1.79
199.708,0.28,0.09,-1.43
199.718,0.37,-0.53,-0.95
199.728,0.48,-0.96,-0.46
199.738,0.57,-1.31,-0.08
199.748,0.47,-1.59,0.09
199.758,0.3,-1.76,-0.03
199.768,0.18,-1.89,-0.4
199.778,0.14,-1.9,-0.74
199.788,0.22,-1.82,-0.89
199.798,0.4,-1.88,-0.93
199.808,0.57,-1.94,-0.84
199.819,0.56,-2.11,-0.67
199.829,0.5,-2.46,-0.59
199.839,0.47,-2.88,-0.6
199.849,0.44,-3.2,-0.62
199.859,0.65,-3.51,-0.59
199.869,0.87,-3.82,-0.6
199.879,1.01,-4.13,-0.56
199.889,1.33,-4.32,-0.54
199.899,1.88,-4.4,-0.45
199.909,2.58,-4.35,-0.4
199.919,3.13,-4.25,-0.39
199.929,3.6,-4.16,-0.33
199.939,3.95,-3.94,-0.11
199.95,4.01,-3.43,0.18
199.96,3.88,-2.85,0.2
199.97,3.31,-2.31,0.03
199.98,2.6,-1.9,-0.35
199.99,2.17,-1.75,-0.84
200.0,2.08,-1.51,-1.36
200.01,2.06,-1.19,-1.57
200.02,2.05,-1.06,-1.37
200.03,2.15,-0.88,-1.07
200.04,2.39,-0.34,-0.98
200.05,2.51,0.38,-0.81
200.06,2.58,1.15,-0.98
200.071,2.34,1.81,-1.19
200.081,1.84,2.27,-1.14
200.091,1.27,2.55,-1.01
