timestamp,ax,ay,az
376.696,-2.01,-4.6,-2.77
376.705,-2.38,-5.1,-2.91
376.716,-2.65,-5.47,-3.02
376.726,-2.7,-5.47,-2.94
376.736,-2.49,-5.32,-2.77
376.746,-2.26,-5.58,-2.36
376.756,-2.16,-5.83,-1.6
376.766,-2.11,-5.57,-0.6
376.776,-1.88,-5.07,0.35
376.786,-1.82,-4.16,0.86
376.796,-2.56,-3.17,1.85
376.807,-3.0,-2.51,3.3
376.817,-2.7,-2.19,4.78
376.827,-2.19,-2.0,6.44
376.837,-1.69,-1.78,7.8
376.847,-1.81,-1.52,8.73
376.857,-3.33,-1.11,9.78
376.867,-5.79,-0.53,10.93
376.877,-8.08,0.28,12.38
376.887,-8.15,1.93,13.11
376.897,-7.99,2.03,13.28
376.908,-7.74,1.54,12.58
376.918,-7.38,1.97,12.2
376.928,-7.53,2.66,12.33
376.937,-6.97,3.63,11.34
376.948,-5.97,4.37,10.65
376.958,-5.18,4.23,10.11
376.968,-3.96,3.18,9.39
376.978,-1.91,2.76,8.97
376.988,1.0,4.06,7.99
376.998,4.0,4.32,5.62
377.008,5.9,4.15,3.88
377.018,6.76,3.8,3.89
377.028,7.2,3.01,4.3
377.038,7.4,2.34,3.69
377.048,7.8,1.74,2.5
377.058,7.91,1.15,1.12
377.068,7.17,0.73,-0.02
377.079,5.96,0.56,-1.18
377.089,4.89,0.45,-2.06
377.099,4.38,0.87,-2.33
377.109,4.58,1.49,-2.06
377.119,4.91,1.74,-0.93
377.129,5.16,1.9,0.54
377.139,5.74,1.72,1.65
377.149,6.22,1.22,2.54
377.159,6.37,0.85,2.87
377.169,6.19,0.58,2.35
377.179,6.07,0.25,1.31
377.189,6.25,-0.12,-0.06
377.2,6.46,-0.58,-1.71
377.21,6.79,-1.16,-2.57
377.22,7.23,-1.59,-2.53
377.23,7.76,-2.1,-1.79
377.24,8.31,-2.65,-0.4
377.25,8.73,-3.15,1.46
377.26,9.29,-3.97,3.31
377.27,9.95,-4.94,5.23
377.28,10.23,-5.69,6.71
377.29,10.3,-6.38,7.3
377.3,10.41,-7.11,7.1
377.31,10.31,-7.78,6.37
377.32,10.29,-8.55,5.69
377.331,10.69,-9.15,5.6
377.341,11.32,-9.43,6.32
377.351,12.1,-9.71,7.6
377.361,13.14,-9.79,9.57
377.371,14.45,-9.74,11.25
377.381,16.73,-9.83,12.67
377.391,19.84,-9.52,14.1
377.401,23.89,-8.68,15.02
377.411,28.54,-7.42,15.65
377.421,32.31,-5.79,15.87
377.432,34.86,-4.39,14.47
377.442,36.17,-3.48,11.24
377.452,34.82,-3.0,6.46
377.462,30.86,-2.98,1.0
377.472,25.64,-2.94,-4.63
377.482,18.96,-2.6,-10.48
377.492,12.75,-2.22,-15.72
377.502,9.76,-1.4,-18.31
377.512,7.81,0.4,-18.19
377.522,6.11,1.69,-16.84
377.532,4.88,2.41,-14.66
377.542,4.9,2.14,-12.94
377.553,5.18,1.34,-12.3
377.563,5.04,1.29,-11.96
377.573,5.73,1.74,-11.23
377.583,7.08,2.0,-10.6
377.593,7.76,2.73,-10.85
377.603,7.76,3.83,-11.71
377.613,7.0,5.09,-12.58
377.623,5.94,6.57,-13.53
377.633,5.28,7.49,-14.15
377.643,4.18,7.72,-13.57
377.653,2.96,7.51,-12.7
377.663,2.29,6.72,-12.29
377.674,1.77,5.78,-11.84
377.683,0.61,5.2,-11.01
377.693,-0.99,4.72,-9.83
377.703,-2.18,3.93,-8.86
377.713,-2.86,2.96,-8.29
377.724,-3.07,2.22,-7.76
377.734,-3.19,1.75,-7.04
377.744,-3.17,1.31,-5.93
377.754,-2.96,0.92,-4.69
377.764,-2.72,0.4,-3.42
377.774,-2.51,-0.14,-2.23
377.784,-2.4,-0.63,-1.19
377.794,-2.45,-1.19,-0.6
377.804,-2.58,-1.91,-0.62
377.814,-2.51,-2.77,-1.02
377.824,-2.33,-3.47,-1.4
377.834,-2.35,-4.05,-1.93
377.844,-2.25,-3.67,-3.2
377.855,-2.94,-3.74,-4.6
377.865,-4.53,-4.8,-5.4
377.875,-5.44,-5.18,-7.07
377.885,-5.23,-5.27,-10.5
377.895,-4.62,-5.35,-14.17
377.905,-3.44,-4.63,-16.67
377.915,-2.23,-2.8,-17.73
377.925,-0.49,-0.35,-18.36
377.935,2.03,1.95,-17.77
377.945,4.79,3.83,-13.89
377.955,7.01,5.35,-6.78
377.965,8.73,7.11,1.39
377.976,9.25,8.25,8.48
377.986,7.21,7.63,12.74
377.996,3.75,5.54,12.97
378.006,0.03,3.43,10.11
378.016,-3.34,2.35,7.22
378.026,-5.28,1.85,5.98
378.036,-5.4,1.61,6.57
378.046,-3.92,1.53,8.86
378.056,-1.84,1.17,10.95
378.066,0.12,0.65,11.04
378.076,0.92,0.19,9.78
378.086,1.17,1.22,6.99
378.097,1.13,2.3,3.4
378.107,1.61,2.33,0.38
378.117,1.99,2.55,-1.53
378.127,1.86,2.91,-2.35
378.137,2.36,3.01,-1.63
378.147,3.22,2.66,-0.25
378.157,4.14,1.85,0.88
378.167,4.49,0.8,1.61
378.177,4.25,-0.56,2.41
378.187,5.09,-1.78,3.31
378.197,5.98,-1.96,2.52
378.207,6.93,-1.57,2.79
378.217,6.75,-2.17,1.99
378.227,5.14,-3.77,0.42
378.238,4.96,-5.0,-0.89
378.248,4.48,-5.75,-1.78
378.258,4.34,-6.46,-2.37
378.268,4.41,-7.33,-2.72
378.278,4.15,-8.37,-2.91
378.288,3.69,-9.25,-2.95
378.298,3.32,-9.67,-3.29
378.308,2.77,-10.01,-3.83
378.318,2.22,-10.32,-4.2
378.328,1.81,-10.63,-4.39
378.338,1.35,-11.02,-4.33
378.348,0.93,-11.28,-4.2
378.359,1.01,-11.25,-3.97
378.369,1.64,-11.01,-3.72
378.379,2.27,-10.53,-3.86
378.389,2.56,-9.99,-4.36
378.399,2.8,-9.68,-5.26
378.409,2.75,-9.58,-6.35
378.419,2.64,-9.38,-7.43
378.429,2.96,-9.29,-8.82
378.439,3.17,-9.38,-10.3
378.449,2.79,-9.36,-11.66
378.459,2.1,-9.16,-12.76
378.469,1.61,-8.86,-13.09
378.479,1.4,-8.58,-12.7
378.49,1.13,-8.05,-11.6
378.5,1.26,-6.78,-10.49
378.51,1.86,-4.7,-9.75
378.52,1.99,-2.13,-8.29
378.53,3.04,0.85,-5.73
378.54,5.55,3.98,-3.48
378.55,9.17,6.15,1.36
378.56,12.7,7.05,9.06
378.571,14.47,6.46,17.58
378.581,13.5,4.81,24.25
378.591,9.06,4.54,26.49
378.601,3.93,6.16,25.27
378.611,1.64,6.93,22.39
378.621,1.22,7.21,19.19
378.631,0.86,7.54,16.18
378.641,-0.27,7.57,13.44
378.651,-1.58,7.34,11.06
378.661,-2.71,6.93,8.52
378.671,-3.79,6.34,6.81
378.681,-4.17,6.03,5.44
378.691,-3.83,5.35,3.49
378.701,-3.06,4.79,2.58
378.711,-2.2,4.43,2.66
378.721,-1.59,3.63,2.82
378.731,-0.83,2.62,2.75
378.741,-0.23,1.41,3.08
378.752,-0.05,0.2,2.98
378.762,0.28,-0.59,2.5
378.772,0.38,-1.57,1.94
378.782,-0.27,-2.86,1.29
378.792,-1.03,-3.69,0.7
378.802,-1.4,-4.12,-0.17
378.812,-1.4,-4.43,-1.28
378.822,-0.94,-4.54,-2.27
378.832,-0.27,-4.63,-3.15
378.842,-0.12,-4.86,-3.87
378.852,-0.68,-5.17,-4.41
378.862,-1.65,-5.59,-4.98
378.873,-2.22,-5.85,-5.43
378.883,-2.29,-5.62,-5.63
378.893,-2.69,-5.46,-5.68
378.903,-3.45,-5.7,-5.43
378.913,-4.65,-6.41,-5.46
378.923,-6.77,-7.81,-4.05
378.933,-9.34,-8.81,-1.25
378.943,-11.65,-9.03,1.5
378.953,-13.39,-8.88,4.4
378.963,-15.02,-8.66,7.29
378.973,-17.0,-8.26,11.26
378.983,-17.77,-7.64,15.8
378.993,-15.87,-7.54,20.17
379.004,-11.51,-6.83,25.34
379.014,-6.03,-4.66,30.04
379.024,-0.87,-2.34,32.4
379.034,3.18,-0.19,31.76
379.044,6.46,2.13,28.81
379.054,9.23,3.9,24.47
379.064,10.52,4.91,19.06
379.074,9.92,4.42,13.37
379.084,9.8,5.58,8.36
379.094,10.56,5.99,4.67
379.104,10.58,3.48,2.14
379.114,10.96,2.44,0.73
379.124,11.73,0.81,0.33
379.135,11.88,-1.41,0.31
379.145,11.72,-3.18,0.83
379.155,11.58,-4.41,1.17
379.165,11.43,-5.76,0.78
379.175,10.85,-6.73,0.02
379.185,9.98,-7.11,-0.84
379.195,9.05,-7.24,-1.68
379.205,8.36,-7.34,-2.38
379.215,7.86,-7.37,-2.53
379.225,7.21,-7.21,-2.13
379.235,6.58,-7.31,-1.58
379.245,5.92,-7.44,-0.82
379.256,5.39,-7.36,-0.12
379.266,5.48,-7.6,0.68
379.276,5.88,-7.88,2.04
379.286,6.69,-8.33,3.04
379.296,7.8,-8.94,3.57
379.306,9.35,-9.27,4.1
379.316,11.39,-9.34,5.37
379.326,13.55,-9.34,6.86
379.336,15.71,-9.17,7.91
379.346,17.71,-8.86,8.82
379.356,19.57,-8.82,9.68
379.366,20.65,-8.84,10.61
379.376,20.45,-8.74,11.81
379.387,20.47,-7.96,11.48
379.397,19.7,-7.02,9.97
379.407,18.39,-7.15,8.19
379.417,17.55,-7.25,6.88
379.427,16.62,-6.23,6.0
379.437,15.72,-5.08,5.57
379.447,15.39,-4.35,5.66
379.457,15.1,-3.74,4.78
379.467,13.99,-3.31,3.14
379.477,13.19,-2.6,1.98
379.487,11.81,-2.09,0.73
379.497,9.74,-1.69,-0.56
379.507,8.0,-1.18,-1.47
379.517,6.79,-0.39,-2.2
379.528,7.19,0.34,-3.48
379.538,8.01,1.11,-4.99
379.548,7.69,2.09,-7.07
379.558,6.55,2.85,-10.0
379.568,4.36,3.82,-12.61
379.578,2.36,3.78,-13.39
379.588,1.61,2.65,-12.14
379.598,0.52,2.03,-9.89
379.608,-1.53,1.19,-7.48
379.618,-3.38,1.79,-4.83
379.629,-2.65,3.49,-2.39
379.639,0.58,4.53,-0.92
379.649,4.45,5.8,-0.74
379.659,8.49,7.09,-1.54
379.669,12.29,8.1,-2.7
379.679,14.39,8.61,-3.86
379.689,14.51,8.13,-4.5
379.699,13.31,7.31,-4.42
379.709,11.72,6.71,-4.21
379.719,10.2,5.9,-4.18
379.729,8.33,4.79,-4.3
379.739,5.99,3.6,-4.84
379.749,3.72,2.45,-6.03
379.759,1.8,1.77,-7.41
379.769,0.81,1.28,-8.43
379.78,0.39,1.18,-8.91
379.79,0.27,1.15,-8.81
379.8,0.4,1.21,-8.42
379.81,0.27,1.43,-7.71
379.82,-0.05,1.69,-7.03
379.83,-0.77,1.84,-6.26
379.84,-1.63,2.07,-5.26
379.85,-2.35,2.75,-4.1
379.86,-2.05,3.74,-3.04
379.87,-0.65,4.57,-2.06
379.88,1.06,5.12,-0.5
379.89,2.42,5.61,1.99
379.9,2.95,5.94,4.31
379.91,2.89,6.04,5.36
379.921,2.63,6.15,5.27
379.931,2.5,6.62,4.45
379.941,2.13,7.3,2.78
379.951,1.56,7.85,0.7
379.961,1.5,8.36,-1.32
379.971,1.08,9.01,-3.13
379.981,0.64,9.5,-4.97
379.991,0.38,10.13,-7.13
380.001,-0.4,11.01,-9.95
380.011,-1.73,12.06,-13.63
380.022,-3.16,13.55,-16.43
380.032,-1.01,17.21,-15.93
380.042,6.0,22.75,-13.2
380.052,12.87,26.41,-10.93
380.062,15.41,26.44,-9.72
380.072,14.98,24.33,-8.47
380.082,14.35,21.06,-7.46
380.092,14.2,16.8,-6.44
380.102,14.14,12.23,-5.09
380.112,13.76,7.34,-3.08
380.122,13.47,3.41,0.69
380.132,13.04,0.62,4.36
380.142,12.77,-1.81,6.13
380.153,12.27,-3.84,6.15
380.162,11.42,-5.64,4.98
380.173,9.98,-7.39,3.37
380.183,7.93,-8.85,1.42
380.193,5.97,-9.14,0.06
380.203,5.27,-8.74,-1.02
380.213,4.05,-8.81,-1.87
380.223,3.61,-9.4,-3.17
380.233,2.82,-10.3,-4.4
380.243,1.29,-11.26,-4.85
380.253,-0.35,-11.94,-4.41
380.263,-1.57,-12.31,-3.69
380.273,-2.07,-12.56,-3.25
380.284,-1.71,-12.62,-3.13
380.294,-0.87,-12.42,-3.17
380.304,0.71,-11.95,-3.58
380.314,3.37,-11.44,-4.35
380.324,6.14,-10.99,-4.94
380.334,8.03,-10.58,-4.95
380.344,8.37,-10.43,-3.36
380.354,7.82,-9.88,-3.04
380.364,7.66,-9.05,-1.62
380.374,7.86,-8.39,-0.54
380.384,8.74,-8.11,-0.14
380.394,9.46,-7.67,0.13
380.404,8.18,-6.91,-1.48
380.414,6.76,-6.65,-2.4
380.425,6.23,-6.65,-3.25
380.435,5.19,-6.36,-3.54
380.445,3.88,-6.69,-4.04
380.455,2.5,-7.47,-4.41
380.467,1.06,-7.83,-4.34
380.475,0.23,-7.93,-4.14
380.485,-0.06,-7.93,-4.06
380.495,0.07,-7.71,-4.14
380.505,0.74,-7.53,-4.36
380.515,1.81,-7.24,-5.0
380.525,3.28,-6.98,-6.0
380.535,4.69,-6.88,-6.54
380.545,5.49,-6.89,-6.84
380.556,5.93,-7.22,-7.34
380.566,6.42,-7.69,-7.73
380.576,7.58,-7.93,-7.85
380.586,9.55,-7.76,-7.55
380.596,11.87,-7.68,-6.42
380.606,14.69,-7.78,-3.49
380.616,13.86,-7.26,-3.35
380.626,12.29,-6.29,-2.1
380.636,10.66,-4.89,-0.23
380.646,9.07,-3.67,1.11
380.656,8.33,-2.73,2.04
380.666,8.59,-1.89,2.69
380.677,8.24,-0.64,2.93
380.687,7.47,1.1,3.26
380.697,6.79,2.58,3.32
380.707,7.06,3.7,2.52
380.717,8.65,5.17,1.74
380.727,10.74,6.87,1.16
380.737,12.19,8.2,1.66
380.747,12.74,8.54,3.7
380.757,11.93,8.31,6.1
380.767,9.8,7.92,7.51
380.777,6.81,7.43,7.71
380.787,4.15,7.34,7.28
380.797,2.71,7.8,6.7
380.808,2.18,8.35,6.56
380.818,1.74,8.68,7.07
380.828,1.22,8.79,8.11
380.838,0.15,8.51,9.81
380.848,-1.25,8.17,11.01
380.858,-2.76,8.11,11.22
380.868,-4.24,8.05,11.24
380.878,-5.48,8.07,11.21
380.888,-6.63,8.24,10.78
380.898,-7.45,8.45,10.3
380.908,-7.85,8.63,10.01
380.918,-8.21,8.61,10.21
380.928,-8.54,8.36,11.12
380.939,-8.77,7.7,11.9
380.949,-8.43,7.48,12.46
380.959,-7.18,8.31,12.66
380.969,-6.98,7.74,11.7
380.979,-7.17,7.42,9.75
380.989,-6.59,7.92,7.82
380.999,-6.09,8.51,6.7
381.009,-5.3,8.7,6.64
381.019,-4.4,8.81,7.24
381.029,-3.69,9.03,7.51
381.039,-2.61,9.3,7.7
381.049,-1.49,10.04,7.85
381.059,-0.27,11.64,7.7
381.07,0.74,13.67,8.27
381.08,2.33,15.04,9.83
381.09,4.57,15.85,11.29
381.1,7.3,16.66,12.64
381.11,8.89,16.78,14.23
381.12,9.09,16.05,15.31
381.13,10.9,15.63,14.99
381.14,12.77,15.57,14.29
381.151,14.95,15.19,12.81
381.16,16.72,14.39,11.41
381.17,17.66,13.17,10.24
381.18,17.74,11.88,8.71
381.19,17.77,10.61,6.44
381.201,17.85,8.84,4.76
381.211,17.76,6.95,3.65
381.221,17.1,5.11,2.5
381.231,16.11,3.46,1.91
381.241,15.05,2.15,1.49
381.251,14.47,1.1,0.45
381.261,13.97,0.09,-0.25
381.271,12.76,-0.86,0.17
381.281,11.86,-1.46,0.8
381.291,11.39,-1.94,0.53
381.301,10.61,-2.57,-0.05
381.311,10.02,-3.22,-0.15
381.322,9.5,-3.73,0.35
381.332,8.67,-4.18,1.64
381.342,8.01,-4.49,3.41
381.352,8.19,-4.52,5.06
381.362,9.14,-4.2,6.38
381.372,10.32,-3.98,7.04
381.382,11.6,-4.22,6.92
381.392,12.78,-4.7,6.26
381.402,13.19,-5.35,5.48
381.412,13.01,-6.04,4.6
381.422,12.68,-6.46,3.79
381.432,12.28,-6.64,2.95
381.442,12.07,-6.38,2.05
381.453,12.61,-5.4,0.77
381.463,13.13,-4.49,-0.26
381.473,13.43,-3.96,-0.2
381.483,13.52,-3.5,0.57
381.493,13.68,-3.62,1.76
381.503,13.88,-4.06,3.29
381.513,14.02,-4.52,4.96
381.523,14.73,-5.01,6.64
381.533,16.29,-5.06,7.95
381.543,18.24,-4.34,8.92
381.553,19.96,-3.51,9.72
381.563,21.7,-2.97,10.05
381.573,22.75,-2.68,9.91
381.584,22.95,-2.55,9.47
381.594,22.14,-2.78,8.9
381.604,21.26,-2.95,7.82
381.614,20.07,-2.77,6.73
381.624,18.8,-2.62,5.87
381.634,18.04,-2.52,4.84
381.644,17.17,-2.14,3.88
381.654,15.99,-1.59,3.26
381.664,15.2,-1.41,3.06
381.674,15.0,-0.99,2.81
