timestamp,ax,ay,az
194.68,7.33,5.8,5.38
194.69,8.63,7.35,5.83
194.7,9.32,8.16,5.88
194.71,8.99,7.92,5.66
194.72,7.95,6.73,5.34
194.73,6.62,5.05,4.8
194.74,4.97,3.15,3.75
194.75,3.17,1.47,2.25
194.76,1.68,0.51,0.81
194.77,0.76,-0.05,-0.23
194.78,0.46,-0.41,-0.78
194.79,0.37,-0.74,-1.13
194.801,-0.02,-1.3,-1.52
194.81,-0.88,-2.27,-1.93
194.821,-1.7,-3.11,-2.28
194.831,-2.59,-3.74,-2.56
194.841,-3.53,-4.36,-2.23
194.851,-4.11,-4.58,-1.47
194.861,-4.28,-4.47,-0.89
194.871,-4.69,-4.34,-0.71
194.881,-5.65,-4.53,-0.94
194.891,-6.31,-5.05,-1.76
194.901,-6.86,-5.45,-2.62
194.911,-7.91,-5.66,-3.68
194.921,-9.8,-5.57,-5.22
194.931,-11.83,-5.45,-7.06
194.942,-13.13,-5.67,-8.54
194.952,-14.13,-5.47,-8.43
194.962,-13.67,-4.43,-6.53
194.972,-11.29,-2.57,-3.99
194.982,-7.38,-0.03,-1.28
194.992,-2.76,2.54,1.76
195.002,0.75,4.57,4.11
195.012,1.65,5.72,4.33
195.022,1.05,5.54,2.7
195.032,0.39,5.07,1.06
195.043,-0.71,4.36,-0.11
195.052,-1.38,2.99,-0.25
195.063,-0.27,1.44,0.76
195.073,1.7,0.34,2.56
195.083,4.24,0.71,4.14
195.093,5.09,1.81,4.89
195.103,4.48,1.27,4.38
195.113,5.03,1.24,2.5
195.123,6.52,1.94,0.99
195.133,8.31,2.27,-0.11
195.143,9.98,3.06,-0.98
195.153,10.48,4.71,-1.22
195.163,10.03,5.88,-0.06
195.173,10.23,5.67,1.32
195.184,10.14,4.98,2.34
195.194,9.21,4.19,3.26
195.204,8.5,3.47,4.02
195.214,8.4,3.2,4.8
195.224,8.45,3.03,5.8
195.234,8.17,3.01,6.48
195.244,7.39,2.99,6.22
195.254,6.85,2.93,5.27
195.264,6.42,2.89,4.03
195.274,6.06,2.99,3.05
195.284,5.75,2.91,2.32
195.294,5.33,2.43,1.73
195.304,4.73,1.93,1.26
195.314,4.31,1.37,0.94
195.325,3.95,0.72,0.68
195.335,3.48,0.38,0.72
195.345,3.04,0.27,0.78
195.355,2.42,0.17,0.49
195.365,1.6,0.11,-0.02
195.375,0.85,-0.08,-0.62
195.385,-0.21,-0.19,-1.05
195.395,-1.48,-0.3,-0.97
195.405,-2.3,-0.47,-0.97
195.415,-3.14,-0.51,-0.99
195.425,-4.38,-0.63,-0.81
195.435,-5.45,-0.79,-0.97
195.446,-6.21,-0.85,-1.44
195.455,-6.66,-0.61,-1.86
195.466,-7.08,-0.14,-2.44
195.476,-7.54,0.44,-3.26
195.486,-7.46,1.34,-4.1
195.496,-7.79,2.18,-4.95
195.506,-8.19,2.89,-6.11
195.516,-8.26,3.49,-6.9
195.526,-8.02,3.98,-6.91
195.536,-6.77,3.73,-6.45
195.546,-5.21,3.59,-4.23
195.556,-4.14,3.16,-1.0
195.566,-3.54,1.9,1.85
195.577,-3.0,0.49,4.32
195.587,-2.79,-0.71,5.91
195.597,-2.57,-1.84,6.28
195.607,-2.71,-2.89,5.53
195.617,-3.55,-3.55,4.06
195.627,-3.77,-3.78,2.81
195.637,-3.46,-3.92,1.85
195.647,-3.22,-4.13,1.0
195.657,-3.3,-4.51,0.28
195.667,-3.81,-4.99,-0.09
195.677,-4.81,-5.48,-0.5
195.688,-5.48,-6.31,-1.02
195.697,-5.99,-7.4,-1.62
195.708,-5.91,-8.21,-2.28
195.718,-5.17,-8.78,-2.22
195.728,-3.84,-8.76,-1.31
195.738,-1.92,-8.04,-0.63
195.748,0.78,-6.73,-0.62
195.758,3.25,-4.14,-0.58
195.768,3.06,-2.04,-1.43
195.778,2.72,-1.62,-2.21
195.788,5.58,-0.8,0.66
195.798,9.96,1.01,6.23
195.808,13.94,3.49,12.62
195.818,15.83,5.12,16.62
195.829,15.51,5.24,16.6
195.838,13.02,4.19,13.13
195.849,9.62,2.29,8.5
195.859,6.79,0.37,4.81
195.869,4.83,-1.13,2.27
195.879,3.7,-2.38,1.23
195.889,2.84,-3.56,0.79
195.899,1.85,-4.61,0.23
195.909,0.83,-5.2,-0.5
195.919,0.21,-5.45,-1.38
195.929,-0.22,-5.49,-2.0
195.939,-0.02,-4.96,-2.15
195.949,0.61,-4.12,-2.11
195.959,1.66,-3.28,-2.41
195.969,2.77,-2.57,-2.94
195.98,3.73,-2.24,-3.49
195.99,4.35,-2.24,-4.26
196.0,4.83,-2.12,-4.98
196.01,5.42,-1.5,-5.37
196.02,6.55,-0.53,-4.9
196.03,8.45,0.85,-3.83
196.04,10.69,2.58,-1.53
196.05,11.87,5.17,0.79
196.06,12.27,8.04,2.1
196.07,12.57,9.2,2.96
196.08,12.13,8.81,3.11
196.091,10.6,8.21,2.49
196.101,8.49,7.34,1.49
196.111,6.19,6.19,0.2
196.121,4.12,5.38,-0.95
196.131,2.24,4.9,-1.58
196.141,0.19,4.29,-2.1
196.151,-1.34,4.05,-2.46
196.161,-2.0,4.26,-2.18
196.171,-3.11,4.32,-1.71
196.181,-3.97,4.64,-1.63
196.191,-4.65,4.97,-1.44
196.201,-5.81,4.89,-1.37
196.212,-6.67,4.51,-1.44
196.221,-7.28,4.4,-1.67
196.232,-7.69,3.81,-2.1
196.242,-7.21,3.18,-2.04
196.252,-6.3,3.13,-1.19
196.262,-5.93,2.89,-0.1
196.272,-6.2,1.87,0.86
196.282,-6.45,0.48,1.86
196.292,-6.7,-0.79,2.72
196.302,-6.84,-2.04,3.46
196.312,-6.93,-3.33,3.97
196.322,-6.77,-4.38,3.96
196.332,-6.44,-5.0,3.58
196.342,-6.16,-5.42,3.1
196.353,-6.0,-5.66,2.37
196.362,-6.02,-5.77,1.83
196.373,-6.05,-5.83,1.5
196.383,-5.96,-5.88,0.97
196.393,-5.91,-5.93,0.51
196.403,-6.05,-5.99,0.2
196.413,-6.14,-6.08,-0.15
196.423,-5.73,-6.15,-0.31
196.433,-5.47,-6.2,-0.69
196.443,-5.56,-6.28,-1.34
196.453,-5.53,-6.38,-1.92
196.463,-5.64,-6.5,-2.71
196.474,-5.39,-6.57,-3.62
196.483,-4.67,-6.39,-4.3
196.494,-4.6,-5.91,-4.81
196.504,-5.52,-5.45,-5.47
196.514,-4.0,-4.51,-5.29
196.524,0.38,-2.47,-2.72
196.534,6.63,0.27,1.49
196.544,12.19,3.69,5.76
196.554,15.85,7.17,8.53
196.564,17.52,10.18,9.46
196.574,18.08,11.85,9.03
196.584,17.17,12.37,7.78
196.595,14.69,11.27,6.39
196.604,11.55,9.49,4.32
196.615,8.79,8.2,2.26
196.625,7.28,6.73,0.86
196.635,6.84,5.57,-0.18
196.645,6.5,5.17,-1.17
196.655,5.49,4.72,-2.32
196.665,3.79,3.82,-3.75
196.675,1.89,2.81,-4.88
196.685,0.06,1.82,-4.96
196.695,-1.13,1.21,-4.13
196.705,-1.64,0.81,-2.69
196.715,-2.16,0.29,-1.16
196.725,-2.64,-0.34,0.03
196.736,-2.89,-0.92,0.82
196.746,-3.12,-1.37,1.26
196.756,-3.21,-1.74,1.25
196.766,-3.31,-1.63,0.62
196.776,-3.54,-1.41,-0.27
196.786,-3.63,-1.46,-0.82
196.796,-3.63,-1.46,-1.0
196.806,-3.5,-1.3,-0.84
196.816,-3.37,-1.13,-0.45
196.826,-3.37,-1.11,-0.02
196.836,-3.3,-1.49,0.34
196.846,-3.23,-1.96,0.62
196.857,-3.12,-2.14,0.92
196.866,-2.9,-1.91,1.09
196.877,-2.52,-1.26,1.12
196.887,-2.18,-0.71,1.22
196.897,-2.07,-0.48,1.36
196.907,-1.62,-0.31,1.53
196.917,-0.73,0.13,1.7
196.927,0.06,0.46,2.01
196.937,0.41,0.13,2.28
196.947,0.38,-0.71,2.27
196.957,0.02,-1.62,1.92
196.967,-0.7,-2.43,1.35
196.978,-1.04,-3.29,1.15
196.987,-0.93,-4.05,1.37
196.998,-0.74,-4.33,1.64
197.008,-0.52,-4.1,1.89
197.018,-0.23,-3.58,2.03
197.028,-0.12,-2.9,1.89
197.038,-0.18,-2.26,1.46
197.048,-0.5,-2.07,0.88
197.058,-0.98,-2.3,0.06
197.068,-1.5,-2.66,-0.91
197.078,-2.03,-3.09,-1.75
197.088,-2.32,-3.78,-2.5
197.098,-2.07,-4.47,-2.93
197.108,-1.69,-4.96,-3.11
197.119,-1.6,-5.52,-3.14
197.129,-2.21,-6.07,-3.1
197.139,-3.54,-6.44,-3.25
197.149,-4.88,-6.77,-3.83
197.159,-5.59,-6.85,-4.82
197.169,-5.82,-6.07,-5.85
197.179,-5.8,-4.53,-6.71
197.189,-5.45,-2.68,-7.04
197.199,-4.38,-0.65,-6.58
197.209,-3.24,1.24,-5.53
197.219,-2.98,2.54,-4.11
197.229,-3.14,3.12,-2.78
197.24,-3.37,3.08,-1.23
197.249,-3.62,2.31,0.42
197.26,-3.52,0.7,1.86
197.27,-2.8,-0.92,3.58
197.28,-1.9,-2.11,5.43
197.29,-1.56,-2.99,6.5
197.3,-2.16,-3.2,6.3
197.31,-2.5,-2.82,5.03
197.32,-2.12,-1.91,3.8
197.33,-0.67,-0.61,3.26
197.34,1.22,0.97,2.84
197.35,2.51,2.37,2.25
197.361,3.33,3.57,1.59
197.371,3.85,4.19,1.0
197.381,4.55,3.69,0.98
197.391,5.7,2.84,1.66
197.401,6.47,2.84,3.13
197.411,7.42,3.74,5.76
197.421,9.07,4.93,8.47
197.431,10.69,6.32,10.22
197.441,11.95,7.76,10.77
197.451,12.11,8.23,10.12
197.461,11.58,7.89,8.08
197.471,10.42,6.83,5.78
197.481,9.03,5.41,4.04
197.491,7.71,4.14,2.66
197.502,6.56,3.46,1.76
197.512,5.65,2.97,1.4
197.522,4.8,2.35,1.61
197.532,3.87,1.62,2.27
197.542,3.0,0.74,2.79
197.552,2.07,0.05,2.96
197.562,1.27,-0.51,2.76
197.572,0.66,-0.8,2.31
197.582,0.05,-0.89,1.73
197.592,-0.5,-0.96,1.04
197.602,-0.96,-1.3,0.53
197.612,-1.46,-2.04,0.3
197.622,-2.14,-3.3,0.27
197.632,-2.69,-4.86,0.12
197.643,-3.06,-6.22,-0.18
197.653,-3.59,-6.78,-0.65
197.663,-4.33,-6.34,-1.46
197.673,-4.47,-5.28,-2.62
197.683,-4.64,-4.3,-4.03
197.693,-4.8,-3.38,-5.18
197.703,-5.1,-2.75,-5.69
197.713,-5.54,-2.35,-5.77
197.723,-6.45,-2.03,-5.76
197.733,-7.78,-1.88,-6.01
197.743,-9.62,-1.99,-6.57
197.753,-12.32,-1.92,-7.19
197.764,-14.44,-1.31,-7.1
197.773,-15.37,-0.13,-5.06
197.784,-15.24,2.08,-0.88
197.794,-12.54,5.19,4.5
197.804,-5.47,8.31,10.52
197.814,2.0,9.84,15.08
197.824,6.62,8.37,16.17
197.834,8.87,5.86,12.75
197.844,8.12,4.85,7.27
197.854,4.58,5.98,1.89
197.864,0.85,6.14,-4.46
197.874,2.09,4.18,-7.5
197.885,3.83,3.88,-5.87
197.895,2.16,2.73,-1.17
197.905,0.1,0.34,2.13
197.915,-0.81,-1.85,3.64
197.925,-0.39,-3.1,4.63
197.935,1.0,-3.05,5.28
197.945,3.1,-2.64,5.33
197.955,4.97,-2.31,4.67
197.965,5.8,-2.61,3.73
197.975,6.73,-3.36,2.75
197.985,7.43,-4.44,2.05
197.995,7.63,-5.72,2.03
198.006,7.24,-6.85,2.8
198.015,6.65,-7.46,3.28
198.026,6.2,-7.55,2.66
198.035,5.13,-7.23,1.03
198.046,3.52,-6.73,-0.66
198.056,2.29,-6.41,-2.08
198.066,1.12,-6.38,-2.9
198.076,0.01,-6.41,-3.34
198.086,-1.42,-6.34,-3.57
198.096,-3.2,-5.96,-4.09
198.106,-4.68,-5.1,-4.21
198.116,-5.12,-3.75,-3.06
198.126,-4.12,-1.82,-0.76
198.136,-2.31,0.44,2.26
198.147,-0.47,2.45,5.14
198.157,0.85,4.1,7.01
198.167,1.99,5.63,7.95
198.177,2.88,6.83,7.96
198.187,2.92,6.87,6.79
198.197,2.04,5.65,4.41
198.207,0.7,4.16,1.85
198.217,-0.6,2.57,-0.51
198.227,-1.75,0.86,-2.41
198.237,-2.11,-0.36,-3.65
198.247,-1.37,-0.78,-4.14
198.257,-0.54,-0.63,-4.2
198.267,0.61,-0.02,-3.88
198.277,2.01,0.36,-3.0
198.288,3.77,0.41,-1.67
198.298,5.41,0.13,0.1
198.308,7.19,0.08,2.12
198.318,9.3,0.99,3.6
198.328,11.22,2.38,4.29
198.338,12.45,3.01,3.36
198.348,11.89,2.4,-0.02
198.358,8.92,1.33,-3.72
198.368,5.51,-0.01,-6.29
198.378,2.28,-1.12,-7.89
198.388,-0.88,-1.54,-8.46
198.398,-2.77,-1.5,-8.08
198.409,-3.72,-1.05,-7.23
198.419,-5.64,-0.45,-6.58
198.429,-7.88,0.36,-6.68
198.439,-10.39,1.42,-6.97
198.449,-12.27,1.69,-7.04
198.459,-12.36,1.84,-5.77
198.469,-11.49,2.99,-2.73
198.479,-10.42,4.52,1.18
198.489,-9.47,5.62,5.4
198.499,-8.57,6.0,9.02
198.51,-7.41,5.62,11.05
198.519,-5.5,4.98,10.98
198.53,-3.31,4.27,8.93
198.54,-2.31,3.52,5.75
198.55,-2.13,2.53,2.69
198.56,-2.24,1.44,-0.44
198.57,-2.89,0.64,-3.0
198.58,-3.46,0.23,-4.16
198.59,-3.63,0.05,-3.66
198.6,-2.83,-0.21,-1.52
198.61,-0.83,-0.35,0.81
198.62,0.96,0.13,2.25
198.63,1.94,0.85,2.84
198.64,2.96,1.39,2.3
198.651,4.33,1.48,1.27
198.66,5.89,1.6,0.59
198.671,7.82,2.2,0.7
198.681,9.25,2.45,1.22
198.691,10.38,1.91,1.57
198.701,11.32,0.84,1.91
198.711,11.26,-0.77,2.14
198.721,10.28,-2.67,1.92
198.731,8.46,-4.28,0.74
198.741,5.97,-5.32,-0.79
198.751,3.59,-5.99,-1.89
198.761,1.73,-6.41,-2.77
198.771,0.18,-6.66,-3.42
198.781,-0.97,-6.7,-3.84
198.792,-1.82,-6.5,-3.9
198.802,-2.36,-6.25,-3.71
198.812,-2.68,-6.27,-3.6
198.822,-3.33,-6.49,-3.84
198.832,-4.38,-6.47,-4.24
198.842,-5.8,-6.13,-4.77
198.852,-7.05,-5.38,-5.54
198.862,-8.26,-4.13,-6.4
198.872,-9.98,-2.46,-7.22
198.882,-11.58,0.06,-7.73
198.892,-12.52,3.56,-7.24
198.902,-12.79,7.63,-5.38
198.912,-11.47,11.34,-1.95
198.923,-7.41,14.05,2.79
198.933,-1.83,14.74,7.92
198.943,2.72,13.0,11.78
198.953,5.11,9.85,13.71
198.963,5.26,6.64,12.67
198.973,4.81,4.71,8.97
198.983,4.09,3.81,5.16
198.993,3.45,2.75,2.11
199.003,2.43,1.62,-0.04
199.013,1.02,0.44,-0.66
199.023,0.84,-0.68,-0.13
199.033,1.92,-1.46,0.59
199.043,3.32,-2.15,1.04
199.054,4.31,-2.72,1.15
199.064,4.58,-3.05,0.74
199.074,4.62,-3.16,0.23
199.084,4.49,-3.32,-0.31
199.094,4.17,-3.56,-0.8
199.104,3.47,-3.83,-1.21
199.114,2.46,-4.34,-1.66
199.124,1.54,-4.95,-2.11
199.134,0.95,-5.35,-2.52
199.144,0.62,-5.54,-2.77
199.154,0.45,-5.73,-2.82
199.164,0.4,-5.8,-2.92
199.175,0.24,-5.71,-3.01
199.185,0.13,-5.56,-2.9
199.195,0.33,-5.24,-2.29
199.205,0.47,-4.87,-1.29
199.215,0.49,-4.32,-0.12
199.225,0.51,-3.33,0.71
199.235,0.58,-2.03,1.25
199.245,0.36,-0.54,1.45
199.255,-0.27,1.27,1.54
199.265,-0.35,3.43,1.98
199.275,0.4,5.47,3.2
199.285,1.72,6.4,4.67
199.296,3.07,6.09,5.79
199.305,3.59,4.98,6.47
199.316,3.28,3.77,6.62
199.326,2.35,2.82,5.88
199.336,1.48,1.9,4.2
199.346,0.64,1.0,2.44
199.356,-0.69,0.19,0.77
199.366,-2.2,-0.48,-0.94
199.376,-3.39,-1.05,-2.5
199.386,-4.26,-1.73,-3.81
199.396,-4.95,-2.56,-4.7
199.406,-5.25,-3.32,-5.11
199.416,-5.26,-4.39,-4.93
199.426,-5.39,-5.33,-4.15
199.437,-5.71,-5.7,-3.22
199.446,-6.28,-5.66,-2.67
199.457,-6.84,-5.12,-2.5
199.467,-6.46,-4.5,-2.52
199.477,-5.48,-3.77,-2.69
199.487,-4.3,-2.56,-2.67
199.497,-3.59,-1.13,-2.58
199.507,-3.61,-0.1,-2.77
199.517,-3.94,0.48,-3.14
199.527,-4.36,0.78,-3.08
199.537,-4.6,1.57,-1.94
199.547,-4.71,2.87,-0.57
199.557,-3.33,4.43,1.24
199.567,0.91,5.65,4.52
199.578,5.35,6.02,7.98
199.588,8.79,6.79,10.31
199.598,10.79,7.87,11.1
199.608,11.35,7.69,9.81
199.618,10.49,6.79,7.06
199.628,8.4,5.62,3.71
199.638,5.42,3.98,1.17
199.648,2.54,2.36,-0.07
199.658,0.83,0.96,-0.42
199.668,0.1,-0.28,-0.02
