timestamp,ax,ay,az
132.083,-0.41,-5.14,-1.21
132.093,-1.31,-5.45,-1.34
132.103,-2.03,-5.67,-1.55
132.114,-2.69,-5.76,-1.73
132.124,-3.22,-5.73,-1.83
132.134,-3.46,-5.51,-1.79
132.144,-3.76,-5.13,-1.74
132.154,-4.12,-4.67,-1.56
132.164,-4.22,-4.23,-1.39
132.174,-4.06,-3.88,-1.3
132.184,-3.69,-3.68,-1.28
132.194,-3.13,-3.3,-1.08
132.204,-2.54,-2.62,-0.7
132.214,-1.9,-1.8,-0.39
132.224,-1.52,-1.01,-0.18
132.235,-1.48,-0.09,-0.07
132.245,-1.87,0.82,0.01
132.255,-2.46,1.59,0.09
132.265,-3.17,2.42,0.14
132.275,-4.02,3.3,0.2
132.285,-4.58,3.99,0.59
132.295,-4.68,4.7,1.22
132.305,-4.71,5.58,1.92
132.315,-4.88,6.19,2.63
132.325,-5.07,6.27,3.08
132.335,-5.3,6.18,3.06
132.345,-5.43,6.2,2.84
132.356,-5.15,6.55,2.69
132.365,-4.38,7.08,2.85
132.376,-3.19,7.71,3.03
132.386,-1.8,8.14,3.21
132.396,-0.06,8.7,3.44
132.406,1.73,9.64,3.87
132.416,2.96,9.25,3.45
132.426,4.06,8.7,3.1
132.436,4.6,8.13,3.23
132.446,4.78,6.75,3.16
132.456,4.99,5.1,2.85
132.466,4.7,3.51,2.53
132.476,3.94,1.92,2.09
132.486,2.98,0.22,1.35
132.496,1.89,-1.41,0.57
132.507,0.83,-2.77,-0.02
132.517,0.02,-3.9,-0.52
132.527,-0.59,-4.82,-0.94
132.537,-1.2,-5.4,-1.23
132.547,-1.53,-5.8,-1.64
132.557,-1.76,-6.24,-1.94
132.567,-2.14,-6.79,-2.17
132.577,-2.7,-7.32,-2.5
132.587,-3.55,-7.96,-2.82
132.597,-4.66,-8.83,-3.11
132.607,-5.6,-9.68,-3.19
132.618,-6.15,-10.32,-2.95
132.627,-5.9,-10.56,-2.59
132.638,-4.51,-10.18,-2.41
132.648,-1.7,-9.3,-2.45
132.658,2.49,-7.95,-2.5
132.668,7.51,-5.67,-1.7
132.678,11.64,-3.37,-1.32
132.688,12.71,-2.42,-0.75
132.698,12.93,-1.85,1.94
132.708,12.55,-1.4,4.51
132.718,13.15,-1.03,5.7
132.728,14.51,-0.41,5.69
132.738,15.32,0.2,5.29
132.748,14.89,0.56,4.95
132.759,13.67,0.72,4.36
132.769,11.84,0.52,3.39
132.779,9.58,-0.06,2.17
132.789,7.31,-0.8,0.99
132.799,5.04,-1.52,0.09
132.809,3.1,-2.22,-0.61
132.819,1.52,-2.87,-1.04
132.829,0.4,-3.36,-1.38
132.839,-0.34,-3.65,-1.89
132.849,-0.76,-3.8,-2.61
132.859,-1.32,-3.79,-3.28
132.869,-2.28,-3.79,-3.68
132.88,-3.23,-3.98,-3.76
132.89,-3.69,-4.01,-4.32
132.9,-4.22,-4.12,-5.02
132.91,-5.11,-4.71,-5.48
132.92,-5.78,-5.71,-5.84
132.93,-5.84,-6.87,-5.92
132.94,-5.44,-7.97,-5.48
132.95,-4.95,-8.8,-4.86
132.96,-4.17,-9.23,-4.54
132.97,-2.39,-9.14,-4.63
132.98,0.69,-8.05,-4.85
132.99,4.58,-5.72,-4.98
133.001,8.77,-2.43,-4.51
133.011,12.3,0.71,-3.12
133.021,15.14,2.64,-1.41
133.031,16.04,3.33,-0.33
133.041,14.86,3.9,0.22
133.051,12.6,4.39,0.07
133.061,10.11,4.38,-0.7
133.071,8.09,3.99,-1.61
133.081,6.16,3.55,-2.14
133.091,4.33,3.27,-2.34
133.101,3.05,3.3,-2.35
133.111,2.37,3.66,-2.24
133.121,2.44,4.21,-1.99
133.131,2.92,4.65,-1.52
133.142,2.92,4.95,-1.04
133.152,2.27,5.11,-0.68
133.162,1.56,5.12,-0.48
133.172,0.77,4.99,-0.23
133.182,-0.07,4.88,0.25
133.192,-0.68,4.8,0.87
133.202,-0.98,4.76,1.74
133.212,-1.3,5.01,2.61
133.222,-1.57,5.41,3.53
133.232,-1.71,5.73,4.49
133.242,-1.82,6.01,5.47
133.252,-2.27,6.25,6.43
133.263,-2.98,6.38,7.22
133.273,-3.65,6.4,7.85
133.283,-4.33,6.29,8.41
133.293,-4.82,5.87,8.94
133.303,-5.17,5.3,9.32
133.313,-5.3,4.78,9.55
133.323,-5.28,4.27,9.7
133.333,-5.23,3.62,9.61
133.343,-5.17,2.89,9.19
133.353,-5.1,2.18,8.52
133.363,-5.0,1.37,7.74
133.373,-4.98,0.43,7.02
133.383,-5.02,-0.41,6.48
133.393,-4.9,-1.14,6.2
133.404,-4.67,-1.84,5.86
133.414,-4.53,-2.58,5.37
133.426,-4.5,-3.28,4.68
133.434,-4.58,-3.71,3.92
133.444,-4.78,-4.01,3.21
133.454,-4.87,-4.16,2.63
133.464,-4.9,-3.89,2.03
133.474,-4.97,-3.16,1.33
133.484,-4.83,-2.04,0.33
133.494,-4.45,-0.6,-1.1
133.504,-3.59,1.16,-2.87
133.514,-2.35,3.12,-4.38
133.525,-0.88,4.91,-5.09
133.534,1.06,6.18,-4.48
133.545,3.68,7.15,-2.69
133.555,7.06,7.89,-0.13
133.565,10.19,8.49,2.19
133.575,12.37,9.19,3.18
133.585,13.04,9.39,2.99
133.595,12.24,8.73,1.56
133.605,10.69,7.42,-0.56
133.615,9.2,5.66,-2.33
133.625,7.73,3.75,-3.5
133.635,6.13,1.99,-4.08
133.645,4.56,0.49,-4.32
133.655,3.32,-0.7,-4.55
133.666,2.41,-1.41,-4.52
133.676,1.77,-1.86,-4.3
133.686,1.43,-2.38,-3.98
133.696,1.36,-3.05,-3.68
133.706,1.39,-3.65,-3.4
133.716,1.36,-4.2,-3.02
133.726,1.42,-4.62,-2.61
133.736,1.48,-4.9,-2.23
133.746,1.23,-5.14,-1.83
133.756,0.79,-5.45,-1.7
133.766,0.25,-5.75,-1.66
133.776,-0.16,-6.05,-1.55
133.786,-0.38,-6.26,-1.45
133.797,-0.49,-6.43,-1.53
133.807,-0.58,-6.62,-1.92
133.817,-0.73,-6.72,-2.49
133.827,-0.87,-6.72,-2.94
133.837,-1.03,-6.58,-3.32
133.847,-1.31,-6.18,-3.69
133.857,-1.53,-5.8,-3.94
133.867,-1.32,-5.51,-3.81
133.877,-0.6,-5.11,-3.13
133.887,0.58,-4.53,-2.08
133.897,2.25,-3.55,-0.63
133.907,3.98,-2.16,1.08
133.917,5.38,-0.78,2.59
133.928,6.45,0.54,3.84
133.938,7.1,1.73,4.44
133.948,7.22,2.43,4.27
133.958,7.09,2.74,3.7
133.968,6.63,3.02,2.9
133.978,5.77,3.23,1.93
133.988,4.8,3.24,1.04
133.998,3.64,2.91,0.35
134.008,2.21,2.29,-0.33
134.018,0.88,1.66,-1.04
134.028,-0.11,1.1,-1.66
134.038,-0.95,0.55,-2.02
134.049,-1.81,0.06,-2.1
134.059,-2.75,-0.5,-2.55
134.069,-3.79,-1.14,-3.17
134.079,-4.76,-1.96,-3.36
134.089,-5.68,-2.93,-3.56
134.099,-6.6,-3.81,-3.69
134.109,-7.48,-4.58,-3.85
134.119,-7.99,-5.17,-3.84
134.129,-8.15,-4.93,-3.15
134.139,-7.98,-4.19,-2.6
134.149,-7.22,-3.56,-2.5
134.159,-5.98,-2.8,-1.91
134.17,-5.0,-1.69,-1.39
134.179,-4.15,-0.55,-0.87
134.19,-3.82,0.33,-0.25
134.2,-3.46,1.22,0.68
134.21,-2.17,2.17,1.68
134.22,0.33,3.66,3.14
134.23,3.33,5.57,5.17
134.24,6.05,7.16,7.71
134.25,7.98,7.74,9.98
134.26,8.93,8.08,10.45
134.27,8.59,8.3,9.38
134.28,7.38,7.98,7.98
134.29,6.52,6.22,6.83
134.3,5.38,4.38,5.76
134.311,4.39,2.8,4.69
134.321,3.94,1.48,4.0
134.331,3.75,0.39,3.54
134.341,3.91,-0.5,3.23
134.351,4.01,-1.13,3.07
134.361,3.98,-1.86,2.97
134.371,3.92,-2.65,2.66
134.381,3.77,-3.27,2.12
134.391,3.4,-3.89,1.47
134.401,2.68,-4.66,0.85
134.411,1.74,-5.42,0.18
134.421,0.97,-5.83,-0.51
134.432,0.42,-5.93,-1.03
134.441,-0.09,-5.91,-1.36
134.452,-0.54,-5.8,-1.57
134.462,-0.76,-5.56,-1.81
134.472,-0.86,-5.16,-1.93
134.482,-0.71,-4.58,-1.79
134.492,-0.18,-3.73,-1.63
134.502,0.71,-2.78,-1.35
134.512,1.79,-1.91,-1.0
134.522,2.61,-1.16,-0.69
134.532,3.13,-0.45,-0.59
134.542,3.2,0.03,-0.65
134.553,2.97,0.28,-0.74
134.563,2.25,0.35,-0.6
134.573,1.38,0.69,-0.25
134.583,0.8,0.05,-0.96
134.593,-0.61,-0.39,-0.65
134.603,-1.74,0.33,0.09
134.613,-2.43,0.67,0.26
134.623,-3.1,0.91,0.37
134.633,-4.0,1.51,0.42
134.643,-4.76,2.29,0.22
134.653,-5.38,3.2,0.5
134.663,-6.14,4.29,1.14
134.674,-6.56,5.47,2.02
134.683,-5.95,6.99,4.34
134.694,-4.91,8.91,6.7
134.704,-3.53,10.73,7.42
134.714,-2.27,11.68,8.09
134.724,-1.74,12.25,7.68
134.734,-1.96,12.37,6.81
134.744,-2.04,11.95,5.46
134.754,-1.93,11.11,4.07
134.764,-1.75,10.2,2.79
134.774,-1.45,9.13,1.63
134.784,-1.07,8.1,0.77
134.795,-0.68,7.15,0.33
134.804,-0.21,6.1,0.26
134.814,0.56,5.03,0.51
134.825,1.23,3.89,0.81
134.835,1.76,2.7,1.09
134.845,2.0,1.49,1.27
134.855,1.88,0.28,1.45
134.865,1.64,-0.81,1.59
134.875,1.38,-1.75,1.62
134.885,1.07,-2.44,1.49
134.895,1.02,-3.15,1.25
134.905,1.3,-3.86,1.02
134.915,1.52,-4.34,0.59
134.925,1.23,-4.64,0.45
134.936,0.73,-5.17,-0.26
134.945,0.24,-5.55,-0.96
134.956,-0.12,-5.55,-1.21
134.966,-0.11,-5.46,-1.34
134.976,0.36,-5.28,-1.43
134.986,0.75,-4.99,-1.44
134.996,0.89,-4.91,-1.39
135.006,1.16,-4.84,-1.33
135.016,1.2,-4.88,-1.41
135.026,1.11,-5.02,-1.65
135.036,1.16,-5.11,-1.99
135.046,1.37,-4.86,-2.66
135.056,1.9,-4.61,-3.17
135.066,3.79,-4.33,-2.6
135.077,4.06,-3.82,-2.84
135.087,5.33,-3.48,-0.87
135.097,7.2,-3.49,1.6
135.107,8.62,-3.33,3.36
135.117,9.98,-2.9,4.72
135.127,10.74,-2.34,5.44
135.137,11.35,-1.6,5.38
135.147,11.6,-0.91,4.79
135.157,11.26,-0.38,3.96
135.167,10.62,-0.08,2.82
135.177,9.66,-0.04,1.71
135.187,8.39,-0.34,0.97
135.197,6.83,-0.95,0.69
135.208,5.4,-1.67,0.64
135.218,4.33,-2.38,0.63
135.228,3.71,-3.06,0.54
135.238,3.51,-3.58,0.31
135.248,3.48,-3.82,-0.25
135.258,3.36,-4.19,-0.95
135.268,2.94,-4.67,-1.58
135.278,1.77,-5.4,-2.13
135.288,-0.13,-6.31,-3.06
135.298,-2.13,-7.28,-3.52
135.308,-4.02,-8.5,-4.68
135.318,-6.63,-10.21,-6.72
135.328,-9.68,-11.95,-8.11
135.339,-11.66,-12.96,-8.65
135.349,-10.74,-12.71,-7.88
135.359,-6.78,-11.25,-6.41
135.369,-1.76,-9.27,-5.34
135.379,3.23,-6.86,-4.79
135.389,8.44,-3.84,-4.31
135.399,13.09,-0.54,-3.39
135.409,16.8,3.06,-2.79
135.419,19.32,6.35,-2.92
135.429,20.3,8.04,-3.44
135.439,19.33,7.96,-3.49
135.449,16.56,6.32,-2.3
135.46,13.31,4.22,-0.4
135.469,10.53,2.64,1.17
135.48,8.59,1.75,1.62
135.49,7.45,1.15,1.1
135.5,6.77,0.66,0.1
135.51,5.82,0.32,-0.74
135.52,4.53,0.03,-1.08
135.53,3.32,-0.43,-0.96
135.54,2.02,-0.79,-0.82
135.55,0.5,-0.96,-0.73
135.56,-0.6,-0.96,-0.67
135.57,-1.0,-0.51,-0.89
135.58,-0.98,0.33,-1.21
135.59,-1.08,1.19,-1.11
135.601,-0.93,2.08,-0.7
135.611,-0.65,2.88,-0.1
135.621,-0.71,3.68,0.4
135.631,-0.96,4.34,1.07
135.641,-1.03,4.66,1.96
135.651,-1.05,4.81,2.84
135.661,-1.53,4.83,3.58
135.671,-2.4,4.77,4.12
135.681,-3.14,4.96,4.35
135.691,-3.44,5.29,4.4
135.701,-3.56,5.82,4.59
135.711,-3.52,6.36,5.14
135.722,-3.33,6.75,6.46
135.731,-3.48,6.81,7.49
135.742,-4.13,6.54,7.85
135.752,-4.55,6.31,8.62
135.762,-4.63,5.96,9.96
135.772,-4.88,5.4,11.64
135.782,-5.11,4.94,13.0
135.792,-5.2,4.79,13.79
135.802,-4.92,4.69,13.94
135.812,-4.65,4.5,13.62
135.822,-4.54,4.34,13.11
135.833,-4.52,4.29,12.45
135.842,-4.2,4.53,11.72
135.852,-3.73,4.98,11.03
135.863,-2.86,5.66,10.31
135.873,-1.85,6.33,9.42
135.883,-1.16,6.88,8.42
135.893,-0.94,7.4,7.11
135.903,-1.41,7.47,5.7
135.913,-2.59,7.11,4.77
135.923,-3.56,7.08,4.08
135.933,-4.41,7.27,3.24
135.943,-5.41,7.62,2.02
135.953,-6.68,7.96,0.53
135.963,-7.7,8.32,-0.7
135.974,-7.44,8.76,-1.21
135.984,-5.73,8.96,-0.92
135.994,-3.45,9.24,-0.01
136.004,-1.06,9.52,1.08
136.014,1.21,9.41,2.5
136.024,2.99,9.35,4.05
136.034,4.39,9.47,5.04
136.044,5.91,9.37,5.46
136.054,7.1,9.05,5.54
136.064,7.63,8.27,4.71
136.074,7.78,7.01,3.22
136.084,7.49,5.82,1.47
136.094,7.13,4.75,-0.46
136.105,6.91,3.77,-2.29
136.114,6.55,3.02,-3.78
136.125,6.13,2.41,-4.68
136.135,5.94,1.87,-5.14
136.145,5.92,1.22,-5.16
136.155,6.02,0.55,-4.39
136.165,6.18,0.0,-3.05
136.175,6.16,-0.64,-1.96
136.185,6.13,-1.49,-1.25
136.195,5.84,-2.41,-0.88
136.205,5.15,-3.34,-0.68
136.215,4.42,-4.21,-0.68
136.226,3.83,-5.02,-0.74
136.235,3.38,-5.75,-0.89
136.246,2.87,-6.51,-1.09
136.256,2.28,-7.3,-1.22
136.266,1.69,-7.94,-1.2
136.276,1.27,-8.39,-1.29
136.286,1.11,-8.19,-2.09
136.296,1.59,-7.12,-3.33
136.306,2.96,-5.68,-4.38
136.316,5.19,-3.98,-4.85
136.326,7.73,-1.81,-4.58
136.336,9.85,0.18,-3.71
136.346,11.27,1.05,-2.28
136.356,11.73,0.81,-0.62
136.367,11.51,0.14,0.96
136.377,10.9,-0.49,2.12
136.387,10.06,-1.22,2.44
136.397,9.26,-2.13,1.82
136.407,8.58,-3.2,0.73
136.417,7.89,-4.07,-0.41
136.427,7.11,-4.77,-1.33
136.437,6.33,-5.36,-1.98
136.447,5.64,-5.85,-2.32
136.457,5.15,-6.28,-2.4
136.467,4.93,-6.61,-2.28
136.477,4.96,-6.77,-2.19
136.487,4.93,-6.82,-2.19
136.497,4.65,-6.83,-2.45
136.508,4.13,-6.71,-2.82
136.518,3.34,-6.61,-2.87
136.528,2.41,-6.4,-2.6
136.538,1.35,-5.89,-2.49
136.548,0.59,-5.23,-2.59
136.558,0.4,-4.39,-2.82
136.568,0.16,-3.54,-2.99
136.578,-0.5,-2.81,-2.91
136.588,-1.5,-1.97,-2.6
136.598,-2.52,-0.74,-2.6
136.608,-2.84,0.77,-2.75
136.618,-1.99,2.72,-2.91
136.63,-0.28,5.1,-2.85
136.639,1.42,7.33,-2.56
136.649,3.05,9.04,-2.04
136.659,4.13,10.2,-1.2
136.669,4.54,10.64,-0.46
136.679,4.37,10.35,-0.01
136.689,3.67,9.64,0.37
136.699,2.83,8.43,0.58
136.709,2.08,6.84,0.51
136.719,1.2,5.34,0.24
136.729,0.16,4.04,-0.1
136.739,-0.75,2.93,-0.26
136.749,-1.4,2.05,-0.36
136.76,-1.93,1.22,-0.43
136.77,-2.16,0.6,-0.43
136.78,-1.98,0.37,-0.44
136.79,-1.76,0.51,-0.51
136.8,-1.69,0.73,-0.59
136.81,-1.62,0.89,-0.56
136.82,-1.48,0.98,-0.22
136.83,-1.31,1.19,0.25
136.84,-0.61,1.72,0.69
136.85,0.36,2.35,1.11
136.86,1.59,3.19,1.47
136.87,3.02,4.33,1.94
136.88,4.6,5.23,2.34
136.891,5.62,5.66,2.73
136.901,5.7,5.46,3.06
136.911,5.08,4.61,3.22
136.921,3.94,3.55,3.03
136.931,2.86,2.57,2.65
136.941,1.84,1.63,2.1
136.951,1.07,0.94,1.18
136.961,0.48,0.53,0.45
136.971,-0.04,0.28,0.17
136.981,-0.5,0.22,0.14
136.991,-0.98,0.43,0.37
137.001,-1.31,0.85,0.8
137.012,-1.63,1.42,1.25
137.022,-1.75,2.14,1.46
137.032,-1.82,3.03,1.63
137.042,-1.88,4.06,1.86
137.052,-1.87,4.94,1.92
137.062,-1.94,5.46,1.66
137.072,-2.26,5.74,1.22
