timestamp,ax,ay,az
161.53,-3.29,-0.3,0.09
161.54,-3.01,-0.25,0.45
161.55,-2.75,-0.21,0.5
161.56,-2.53,-0.17,0.32
161.57,-2.45,-0.04,-0.05
161.58,-2.46,0.13,-0.47
161.59,-2.39,0.24,-0.73
161.6,-2.09,0.18,-0.69
161.61,-1.52,-0.02,-0.35
161.62,-1.03,-0.24,0.08
161.63,-0.62,-0.48,0.47
161.64,-0.1,-0.58,0.77
161.651,0.44,-0.58,1.15
161.661,1.09,-0.62,1.47
161.671,1.73,-0.5,1.86
161.681,2.37,-0.43,2.35
161.691,3.12,-0.28,2.67
161.701,3.57,-0.09,2.77
161.711,3.93,0.05,2.68
161.721,3.99,0.09,2.3
161.731,4.0,0.0,1.81
161.741,3.87,-0.23,1.42
161.751,3.65,-0.49,1.1
161.761,3.42,-0.66,1.0
161.772,3.18,-0.85,1.05
161.782,3.15,-1.08,1.14
161.792,3.08,-1.22,1.23
161.802,2.84,-1.1,1.2
161.812,2.68,-1.05,1.07
161.822,2.47,-0.88,0.81
161.832,2.09,-0.57,0.55
161.842,1.55,-0.4,0.21
161.852,1.07,-0.13,-0.07
161.862,0.45,0.11,-0.21
161.872,-0.21,0.67,-0.44
161.882,-0.78,1.25,-0.68
161.893,-1.2,1.75,-0.84
161.902,-1.35,2.1,-0.95
161.913,-1.58,2.2,-1.07
161.923,-1.9,2.39,-1.26
161.933,-2.25,2.65,-1.42
161.943,-2.63,2.52,-1.37
161.953,-2.79,2.08,-1.3
161.963,-2.77,1.53,-1.11
161.973,-2.77,0.85,-0.76
161.983,-2.57,0.11,-0.42
161.993,-2.22,-0.49,-0.1
162.003,-1.84,-0.89,0.1
162.013,-1.63,-1.1,0.12
162.023,-1.31,-1.01,-0.23
162.034,-1.17,-0.75,-0.82
162.044,-1.35,-0.47,-1.43
162.054,-1.69,-0.33,-1.97
162.064,-1.94,-0.37,-2.36
162.074,-2.16,-0.62,-2.43
162.084,-2.25,-0.91,-2.23
162.094,-2.22,-1.2,-1.89
162.104,-2.13,-1.52,-1.57
162.114,-1.94,-1.76,-1.32
162.124,-1.71,-1.94,-1.13
162.134,-1.51,-2.09,-1.02
162.144,-1.17,-2.09,-1.01
162.155,-0.83,-1.88,-0.97
162.164,-0.5,-1.59,-1.01
162.175,-0.15,-1.26,-1.08
162.185,0.12,-0.89,-1.07
162.195,0.51,-0.66,-1.0
162.205,1.21,-0.58,-0.76
162.215,2.03,-0.46,-0.43
162.225,2.84,-0.32,-0.14
162.235,3.5,-0.22,0.19
162.245,3.9,-0.17,0.47
162.255,4.17,-0.24,0.57
162.265,4.29,-0.26,0.52
162.275,4.08,-0.22,0.34
162.285,3.77,-0.25,0.11
162.296,3.4,-0.32,-0.1
162.306,3.11,-0.32,-0.23
162.316,2.87,-0.38,-0.19
162.326,2.7,-0.44,-0.05
162.336,2.74,-0.43,0.15
162.346,2.82,-0.43,0.33
162.356,2.91,-0.31,0.47
162.366,2.89,-0.2,0.54
162.376,2.9,-0.02,0.57
162.386,3.03,0.41,0.55
162.396,3.09,0.98,0.56
162.406,3.07,1.4,0.67
162.417,3.14,1.71,0.76
162.426,3.15,1.89,0.88
162.437,3.09,1.92,0.97
162.447,2.98,1.8,0.95
162.457,2.59,1.62,0.79
162.467,1.91,1.54,0.57
162.477,1.47,1.38,0.43
162.487,1.18,1.24,0.33
162.497,0.95,1.12,0.2
162.507,0.76,1.1,0.07
162.517,0.65,1.05,-0.12
162.527,0.66,0.93,-0.37
162.538,0.51,0.84,-0.72
162.547,0.27,0.78,-1.18
162.558,0.02,0.71,-1.59
162.568,-0.04,0.66,-1.83
162.578,0.16,0.52,-1.85
162.588,0.47,0.4,-1.67
162.598,0.85,0.29,-1.38
162.608,1.3,0.2,-1.15
162.618,1.64,0.41,-1.15
162.628,1.59,0.62,-1.21
162.638,1.47,0.58,-1.39
162.648,1.19,0.39,-1.6
162.658,0.73,0.22,-1.83
162.668,0.26,0.1,-2.29
162.679,-0.21,0.04,-2.54
162.689,-0.7,-0.2,-2.58
162.699,-1.23,-0.64,-2.59
162.709,-1.77,-0.96,-2.49
162.719,-2.21,-1.19,-2.12
162.729,-2.36,-1.38,-1.59
162.739,-2.44,-1.34,-1.03
162.749,-2.73,-1.22,-0.26
162.759,-2.86,-1.07,0.48
162.769,-2.88,-0.84,1.08
162.78,-2.95,-0.48,1.65
162.789,-2.93,-0.26,2.29
162.8,-2.62,-0.3,3.08
162.81,-2.16,-0.33,3.8
162.82,-1.82,-0.37,4.15
162.83,-1.43,-0.29,4.16
162.84,-0.99,-0.41,4.18
162.85,-0.41,-0.68,4.05
162.86,0.03,-0.71,3.72
162.87,0.19,-0.65,3.22
162.88,0.18,-0.67,2.48
162.89,-0.07,-0.49,1.75
162.9,-0.29,-0.17,0.99
162.91,-0.49,0.22,0.12
162.92,-0.71,0.67,-0.84
162.93,-1.16,0.95,-1.6
162.941,-1.48,0.97,-2.16
162.951,-1.73,0.74,-2.31
162.961,-1.91,0.44,-2.19
162.971,-2.09,0.16,-1.83
162.981,-2.26,-0.21,-1.06
162.991,-1.87,-0.51,-0.13
163.001,-1.18,-0.15,0.08
163.011,-1.06,0.02,0.15
163.021,-0.33,0.19,-0.03
163.031,0.48,0.74,-0.38
163.041,0.66,1.37,-0.82
163.051,0.47,1.79,-1.41
163.062,0.21,1.91,-2.1
163.072,-0.15,1.73,-2.73
163.082,-0.54,1.5,-3.02
163.092,-0.77,1.23,-2.85
163.102,-1.01,0.8,-2.35
163.112,-1.2,0.51,-1.51
163.122,-1.31,0.67,-0.57
163.132,-2.18,0.09,-0.02
163.142,-2.68,-0.6,1.07
163.152,-3.12,-0.78,1.08
163.162,-3.73,-0.95,0.53
163.172,-3.87,-1.12,0.54
163.183,-3.84,-1.11,0.43
163.192,-3.74,-1.25,0.39
163.203,-3.35,-1.64,0.29
163.213,-2.56,-1.85,0.3
163.223,-1.85,-2.1,0.38
163.233,-1.22,-2.59,0.3
163.243,-0.81,-2.81,0.19
163.253,-0.54,-2.84,0.09
163.263,-0.36,-2.9,-0.12
163.273,-0.13,-2.84,-0.34
163.283,0.2,-2.5,-0.52
163.293,0.47,-1.97,-0.78
163.304,0.54,-1.42,-1.04
163.313,0.26,-1.13,-1.39
163.324,-0.4,-1.03,-1.72
163.334,-1.31,-0.77,-1.83
163.344,-2.02,-0.22,-1.48
163.354,-2.67,0.28,-0.85
163.364,-3.27,0.67,0.01
163.374,-3.65,1.15,1.02
163.384,-3.58,1.78,2.17
163.394,-3.22,2.4,3.34
163.404,-2.58,3.03,4.25
163.414,-1.84,3.45,4.77
163.424,-1.28,3.5,4.82
163.435,-1.06,3.32,4.41
163.445,-1.26,3.12,3.64
163.455,-1.6,2.83,2.63
163.465,-1.93,2.47,1.65
163.475,-2.18,2.09,0.81
163.485,-2.45,1.66,0.27
163.495,-2.73,1.15,0.01
163.505,-3.08,0.82,0.03
163.515,-3.23,0.74,0.48
163.525,-2.92,0.59,1.2
163.535,-2.51,0.53,2.12
163.545,-2.1,0.34,2.89
163.555,-1.79,-0.09,3.34
163.566,-1.63,-0.53,3.44
163.575,-1.6,-0.91,3.11
163.586,-1.55,-1.1,2.39
163.596,-1.77,-1.17,1.6
163.606,-2.07,-1.3,0.89
163.616,-2.26,-1.52,0.31
163.626,-2.21,-1.79,0.17
163.636,-1.45,-1.71,0.83
163.646,-0.87,-1.43,0.6
163.656,-0.79,-1.64,0.4
163.666,-0.45,-1.71,0.48
163.676,0.12,-1.93,0.94
163.686,0.85,-2.25,1.28
163.696,1.64,-2.34,1.48
163.707,2.46,-2.1,1.49
163.717,2.88,-1.52,1.22
163.727,2.74,-0.94,0.27
163.737,2.5,-0.54,-1.07
163.747,2.08,-0.44,-2.35
163.757,1.52,-0.39,-3.42
163.767,1.14,-0.45,-4.07
163.777,0.86,-0.6,-4.27
163.787,0.78,-0.27,-4.33
163.797,0.99,0.1,-3.72
163.808,1.5,0.51,-2.8
163.817,1.9,1.1,-2.1
163.828,1.87,1.68,-1.66
163.838,1.62,2.03,-1.47
163.848,1.24,1.98,-1.23
163.858,0.63,1.76,-0.88
163.868,-0.03,1.49,-0.5
163.878,-0.64,1.37,-0.02
163.888,-1.15,1.43,0.37
163.898,-1.7,1.57,0.72
163.908,-2.15,1.6,1.13
163.918,-2.26,1.64,1.32
163.928,-1.96,1.77,1.59
163.938,-1.27,1.78,1.87
163.949,-0.2,1.67,2.12
163.958,0.87,1.38,2.08
163.969,1.81,0.91,1.77
163.979,2.56,0.46,1.29
163.989,2.9,0.02,0.6
163.999,2.91,-0.41,-0.18
164.009,2.58,-0.55,-0.89
164.019,2.04,-0.57,-1.37
164.029,1.56,-0.5,-1.58
164.039,1.18,-0.18,-1.4
164.049,0.84,0.12,-1.0
164.059,0.8,0.03,-0.54
164.069,0.82,-0.28,-0.09
164.079,0.86,-0.79,0.3
164.09,0.91,-1.33,0.4
164.1,0.75,-1.68,0.38
164.11,0.6,-1.98,0.39
164.12,0.58,-2.11,0.36
164.13,0.67,-1.9,0.31
164.14,0.78,-1.59,0.3
164.15,1.0,-1.36,0.16
164.16,1.03,-1.14,-0.02
164.17,0.96,-0.92,-0.26
164.18,1.07,-0.74,-0.48
164.191,1.11,-0.58,-0.54
164.2,1.09,-0.42,-0.65
164.211,0.91,-0.3,-0.8
164.221,0.81,-0.25,-0.81
164.231,0.74,-0.19,-0.74
164.241,1.04,-0.17,-0.56
164.251,1.51,0.09,-0.26
164.261,1.77,0.35,0.06
164.271,2.04,0.31,0.36
164.281,2.24,-0.05,0.84
164.291,2.39,-0.55,1.32
164.301,2.5,-0.9,1.63
164.311,2.48,-1.22,1.68
164.321,2.32,-1.72,1.63
164.332,2.16,-2.14,1.57
164.341,2.04,-2.3,1.44
164.352,1.98,-2.28,1.2
164.362,1.89,-2.07,0.85
164.372,1.89,-1.74,0.51
164.382,1.92,-1.41,0.09
164.392,1.72,-1.12,-0.26
164.402,1.45,-0.95,-0.43
164.412,1.28,-0.93,-0.4
164.422,1.26,-1.01,-0.08
164.432,1.26,-1.0,0.37
164.442,1.4,-0.81,0.75
164.452,1.45,-0.54,0.95
164.462,1.54,-0.31,0.96
164.473,1.67,-0.08,0.86
164.483,1.72,0.29,0.61
164.493,1.63,0.68,0.29
164.503,1.51,1.06,-0.1
164.513,1.37,1.46,-0.35
164.523,1.25,1.76,-0.37
164.533,1.32,1.92,-0.17
164.543,1.54,2.07,0.17
164.553,1.7,1.99,0.48
164.563,1.82,1.8,0.68
164.573,1.84,1.6,0.78
164.583,1.9,1.41,0.87
164.594,2.03,1.21,0.97
164.604,2.09,1.11,0.92
164.614,2.03,1.04,0.75
164.624,1.91,0.83,0.48
164.634,1.77,0.52,0.14
164.644,1.69,0.28,-0.19
164.654,1.63,0.12,-0.39
164.664,1.5,-0.03,-0.61
164.674,1.35,-0.25,-0.74
164.684,1.14,-0.52,-0.78
164.694,0.74,-0.84,-0.81
164.704,0.2,-1.28,-0.8
164.715,-0.48,-1.74,-0.73
164.724,-1.23,-2.27,-0.62
164.735,-1.59,-2.75,-0.42
164.745,-1.67,-2.82,-0.18
164.755,-1.49,-2.46,0.02
164.765,-1.07,-1.8,-0.06
164.775,-0.74,-0.82,-0.33
164.785,-0.68,0.23,-0.81
164.795,-0.67,1.07,-1.43
164.805,-0.53,1.86,-1.93
164.815,-0.3,2.47,-2.35
164.825,-0.21,2.82,-2.42
164.835,-0.2,2.74,-2.16
164.845,-0.13,2.3,-1.68
164.856,0.17,1.77,-1.06
164.866,0.35,1.26,-0.27
164.876,0.34,0.59,0.35
164.886,0.27,0.08,0.75
164.896,-0.19,-0.19,1.03
164.906,-1.05,-0.44,1.02
164.916,-2.04,-0.56,0.85
164.926,-2.88,-0.5,0.74
164.936,-3.42,-0.22,0.78
164.946,-3.64,0.1,1.08
164.957,-3.45,0.29,1.41
164.966,-2.98,0.49,1.66
164.977,-2.66,0.63,1.71
164.986,-2.38,0.55,1.56
164.997,-2.13,0.32,1.28
165.007,-1.93,0.18,1.0
165.017,-1.63,0.18,0.76
165.027,-1.32,0.27,0.52
165.037,-1.0,0.41,0.26
165.047,-0.7,0.6,0.09
165.057,-0.54,0.69,-0.05
165.067,-0.54,0.46,-0.29
165.077,-0.56,0.08,-0.66
165.087,-0.73,-0.15,-1.07
165.098,-1.02,-0.35,-1.5
165.107,-1.28,-0.58,-1.81
165.118,-1.45,-0.83,-1.98
165.128,-1.67,-0.94,-2.13
165.138,-1.86,-0.86,-2.21
165.148,-1.83,-0.71,-2.1
165.158,-1.77,-0.51,-1.83
165.168,-1.57,-0.35,-1.37
165.178,-1.22,-0.23,-0.9
165.188,-0.96,-0.08,-0.52
165.198,-0.8,0.07,-0.36
165.208,-0.7,0.26,-0.24
165.218,-0.54,0.41,0.0
165.228,-0.32,0.4,0.35
165.239,-0.23,0.19,0.76
165.249,-0.18,-0.11,1.14
165.259,-0.15,-0.42,1.45
165.269,-0.13,-0.65,1.65
165.279,-0.03,-0.81,1.74
165.289,0.12,-0.9,1.71
165.299,0.23,-0.94,1.67
165.309,0.35,-1.08,1.5
165.319,0.48,-1.24,1.16
165.329,0.51,-1.31,0.68
165.339,0.26,-1.41,0.17
165.349,-0.2,-1.62,-0.36
165.36,-0.73,-1.76,-0.91
165.37,-1.35,-1.73,-1.31
165.38,-1.95,-1.57,-1.55
165.39,-2.6,-1.32,-1.72
165.4,-3.16,-0.89,-1.81
165.41,-3.61,-0.19,-1.81
165.42,-4.01,0.68,-1.66
165.43,-4.21,1.46,-1.32
165.44,-4.42,2.24,-0.66
165.45,-4.61,3.01,0.46
165.46,-4.18,3.47,1.8
165.47,-3.28,3.37,3.02
165.48,-2.52,3.03,3.79
165.49,-1.93,2.74,4.13
165.501,-1.41,2.59,4.21
165.511,-1.04,2.55,4.13
165.521,-0.83,2.58,3.93
165.531,-0.76,2.6,3.73
165.541,-0.69,2.69,3.8
165.551,-0.37,2.72,4.16
165.561,0.17,2.65,4.68
165.571,0.86,2.57,5.17
165.581,1.44,2.21,5.54
165.591,1.78,1.65,5.59
165.601,1.81,1.03,5.24
165.611,1.53,0.34,4.66
165.621,1.02,-0.48,3.9
165.632,0.45,-1.29,3.06
165.642,0.2,-1.79,2.3
165.652,0.32,-1.67,1.91
165.662,0.7,-1.36,1.53
165.672,1.16,-1.17,1.2
165.682,1.57,-1.07,0.89
165.692,1.88,-1.13,0.54
165.702,1.84,-1.25,0.38
165.712,1.67,-1.43,0.3
165.722,1.78,-1.6,-0.01
165.732,1.87,-1.7,-0.31
165.742,1.7,-1.65,-0.62
165.752,1.42,-1.64,-0.92
165.763,1.23,-1.7,-1.3
165.773,1.12,-1.65,-1.69
165.783,1.01,-1.53,-1.9
165.793,0.98,-1.49,-2.1
165.803,0.93,-1.43,-2.21
165.813,0.92,-1.22,-2.34
165.823,0.82,-0.88,-2.51
165.833,0.61,-0.37,-2.64
165.843,0.29,0.05,-2.8
165.853,-0.07,0.32,-2.9
165.864,-0.09,0.49,-2.81
165.873,-0.02,0.73,-2.4
165.884,0.16,0.9,-1.91
165.894,0.34,0.9,-1.58
165.904,0.32,0.79,-1.43
165.914,0.21,0.71,-1.52
165.924,0.1,0.78,-1.63
165.934,0.04,0.9,-1.69
165.944,-0.37,0.62,-1.9
165.954,-0.45,0.81,-1.85
165.964,-0.17,1.3,-1.26
165.974,0.17,1.66,-0.49
165.985,0.43,1.83,0.14
165.994,0.57,1.84,0.44
166.005,0.57,1.74,0.33
166.014,0.55,1.51,0.04
166.025,0.68,1.18,-0.22
166.035,0.9,1.02,-0.43
166.045,1.13,1.04,-0.5
166.055,1.39,1.01,-0.42
166.065,1.53,0.84,-0.37
166.075,1.47,0.6,-0.43
166.085,1.26,0.4,-0.42
166.095,1.04,0.12,-0.19
166.105,0.94,-0.13,0.14
166.115,0.89,-0.32,0.47
166.126,0.83,-0.56,0.71
166.136,0.76,-0.71,0.89
166.146,0.69,-0.9,1.02
166.156,0.66,-1.14,1.05
166.166,0.63,-1.42,1.02
166.176,0.6,-1.72,0.87
166.186,0.58,-1.91,0.66
166.196,0.59,-1.96,0.46
166.206,0.66,-1.9,0.33
166.216,0.73,-1.87,0.22
166.226,0.91,-1.82,0.21
166.236,1.17,-1.63,0.27
166.246,1.71,-1.37,0.51
166.256,2.44,-1.11,0.89
166.267,3.14,-0.94,1.31
166.277,3.75,-1.06,1.69
166.287,4.38,-1.33,1.96
166.297,4.91,-1.51,2.03
166.307,5.29,-1.71,1.96
166.317,5.57,-1.96,1.8
166.327,5.81,-1.9,1.69
166.337,5.91,-1.67,1.57
166.347,5.85,-1.48,1.32
166.357,5.81,-1.19,1.09
166.368,5.84,-1.08,1.11
166.377,5.96,-1.24,1.32
166.388,6.14,-1.43,1.55
166.397,6.04,-1.56,1.61
166.408,5.72,-1.68,1.39
166.418,5.24,-1.73,0.97
166.428,4.55,-1.5,0.45
166.438,3.71,-1.2,-0.09
166.448,2.99,-0.82,-0.55
166.458,2.29,-0.42,-0.84
166.468,1.86,-0.05,-0.95
166.478,1.62,0.34,-0.9
166.488,1.65,0.71,-0.71
166.498,1.69,0.94,-0.44
166.509,1.78,1.03,-0.21
166.518,1.79,0.93,-0.17
