timestamp,ax,ay,az
120.766,2.68,2.04,0.16
120.776,4.35,3.28,-0.64
120.786,4.79,4.29,-1.34
120.796,4.13,4.89,-1.82
120.806,3.24,4.9,-1.41
120.816,2.71,4.7,-0.2
120.826,2.11,4.31,1.33
120.836,1.7,3.76,2.81
120.846,1.66,3.13,3.83
120.857,2.17,3.4,4.31
120.867,2.84,4.83,3.77
120.877,3.25,5.75,1.99
120.887,3.63,5.22,0.0
120.897,3.57,3.86,-1.19
120.907,2.8,2.2,-0.09
120.917,2.73,0.32,3.17
120.927,3.38,-1.69,7.6
120.937,4.27,-2.73,15.18
120.947,3.56,-2.09,13.92
120.957,3.89,-0.91,10.05
120.967,2.94,-0.3,7.66
120.977,1.57,0.91,3.94
120.988,-0.33,1.09,2.44
120.998,-1.53,0.5,2.11
121.008,-2.42,-0.31,2.47
121.018,-2.9,-1.07,3.07
121.028,-2.37,-1.95,3.97
121.038,-1.64,-2.77,5.16
121.048,-1.22,-3.05,5.7
121.058,-1.29,-3.18,5.85
121.068,-1.35,-3.42,5.81
121.078,-0.61,-4.03,5.5
121.088,0.42,-4.88,5.08
121.098,1.51,-5.51,4.79
121.108,2.72,-6.01,4.74
121.118,4.37,-6.83,4.77
121.129,6.0,-8.02,4.62
121.139,7.0,-8.74,3.8
121.149,7.88,-8.98,1.98
121.159,8.76,-9.41,-1.87
121.169,8.69,-10.09,-6.21
121.179,7.32,-10.93,-10.52
121.189,4.87,-11.74,-13.89
121.199,1.73,-12.19,-15.91
121.209,-0.96,-12.17,-16.68
121.219,-2.91,-12.2,-16.45
121.23,-4.67,-12.19,-15.05
121.24,-6.16,-11.95,-13.0
121.249,-6.73,-11.35,-10.84
121.26,-6.53,-10.43,-8.57
121.27,-5.46,-9.58,-6.76
121.28,-4.06,-8.43,-5.18
121.29,-3.83,-7.23,-3.76
121.3,-3.58,-6.08,-3.05
121.31,-2.66,-4.74,-2.23
121.32,-2.9,-3.54,-2.13
121.33,-3.6,-2.24,-3.0
121.34,-3.4,-0.87,-3.38
121.35,-2.52,0.62,-2.64
121.36,-1.11,1.89,-1.82
121.37,-0.05,3.46,-1.71
121.381,-0.26,5.15,-2.29
121.391,-0.72,6.42,-2.98
121.401,-0.41,7.54,-2.95
121.411,0.33,8.73,-1.79
121.421,0.58,9.6,-0.21
121.431,0.65,10.06,0.96
121.441,0.89,10.57,1.95
121.451,1.35,11.03,3.06
121.461,1.86,11.36,4.01
121.471,2.44,11.55,4.36
121.481,2.93,12.05,3.85
121.492,3.1,12.66,3.02
121.501,3.53,12.73,2.53
121.512,4.07,12.31,2.69
121.522,3.34,11.99,1.83
121.532,2.46,11.45,1.35
121.542,3.05,10.76,2.76
121.552,2.71,10.24,4.12
121.562,2.23,9.65,4.68
121.572,2.14,9.29,5.4
121.582,2.36,9.5,5.71
121.592,2.63,10.67,5.08
121.602,2.1,12.01,4.05
121.612,2.1,12.6,2.74
121.622,2.82,12.73,1.99
121.633,3.55,12.01,1.76
121.643,4.19,10.65,1.36
121.653,4.69,9.66,0.5
121.663,4.93,9.21,-1.14
121.673,5.63,8.68,-2.99
121.683,6.62,7.91,-4.93
121.693,7.44,6.69,-7.08
121.703,8.5,5.18,-9.24
121.713,9.93,4.31,-10.75
121.723,10.9,3.72,-11.85
121.733,11.72,2.36,-13.2
121.744,12.37,0.27,-14.09
121.754,11.9,-2.53,-14.18
121.764,11.27,-5.92,-14.42
121.774,10.84,-8.52,-15.1
121.784,10.61,-9.51,-15.84
121.794,10.83,-9.55,-16.56
121.804,11.32,-9.57,-16.77
121.814,12.09,-9.61,-16.52
121.824,11.96,-9.35,-15.34
121.834,11.14,-9.16,-14.15
121.844,10.34,-8.71,-13.0
121.854,9.7,-8.64,-11.28
121.864,9.59,-9.07,-8.94
121.874,9.33,-9.55,-6.3
121.884,8.64,-9.71,-3.81
121.895,8.11,-9.89,-2.06
121.905,7.88,-10.35,-1.29
121.915,7.53,-11.0,-0.8
121.925,7.21,-11.56,-0.46
121.935,7.11,-12.08,-0.0
121.945,7.66,-12.59,-0.15
121.955,8.68,-13.06,-0.77
121.965,9.8,-13.43,-1.27
121.975,11.16,-13.66,-1.67
121.985,12.44,-13.69,-1.2
121.995,12.87,-13.67,0.23
122.005,12.18,-14.04,1.71
122.015,11.0,-14.5,2.79
122.026,10.11,-14.99,3.94
122.036,9.72,-15.34,5.32
122.046,10.23,-15.05,6.2
122.056,11.23,-14.09,6.34
122.066,12.01,-12.93,5.97
122.076,12.35,-11.58,5.6
122.086,12.44,-10.61,5.13
122.096,12.27,-10.06,4.9
122.106,11.99,-9.67,5.24
122.116,12.29,-9.64,5.72
122.126,13.11,-9.94,6.66
122.137,13.83,-10.21,8.13
122.146,14.21,-10.11,9.93
122.157,14.32,-9.47,11.68
122.166,14.3,-8.54,12.84
122.177,14.14,-7.7,12.85
122.187,13.56,-6.77,12.05
122.197,12.03,-5.67,10.7
122.207,9.84,-4.69,8.91
122.217,7.78,-4.16,7.31
122.227,6.04,-4.13,6.0
122.237,4.48,-4.09,5.78
122.247,3.56,-3.44,6.94
122.257,4.38,-2.77,8.48
122.267,6.41,-1.74,10.12
122.277,7.61,1.13,11.47
122.287,8.23,4.14,11.82
122.298,7.92,6.17,11.91
122.308,6.73,8.08,12.21
122.318,5.02,9.41,12.15
122.328,3.76,10.34,12.12
122.338,3.52,10.9,11.93
122.348,4.48,10.84,11.04
122.358,5.55,10.22,10.24
122.368,7.45,10.75,10.6
122.378,11.86,12.31,11.19
122.389,16.23,14.01,10.85
122.399,19.09,16.53,8.68
122.409,20.09,19.02,4.21
122.419,19.22,20.11,-0.66
122.429,16.79,20.32,-4.42
122.439,13.22,19.65,-6.53
122.449,10.33,17.86,-6.31
122.459,8.25,15.72,-4.56
122.469,6.9,13.91,-3.09
122.479,5.94,12.66,-2.72
122.489,5.86,11.8,-4.15
122.499,5.7,10.35,-6.06
122.509,5.2,8.17,-7.5
122.519,4.44,5.69,-7.54
122.529,3.99,3.22,-7.81
122.54,3.46,0.98,-8.6
122.55,2.29,-1.16,-9.22
122.56,0.73,-2.95,-9.86
122.57,-0.9,-4.27,-10.17
122.58,-2.47,-5.19,-9.69
122.59,-3.02,-5.95,-9.71
122.6,-2.48,-6.55,-9.54
122.61,-1.57,-6.64,-9.54
122.62,-0.11,-6.24,-9.75
122.63,1.3,-5.82,-9.13
122.64,1.76,-5.67,-8.19
122.65,2.2,-5.46,-7.55
122.66,3.19,-4.64,-7.41
122.67,4.72,-3.04,-7.87
122.68,6.97,-1.16,-8.75
122.69,9.15,0.73,-9.47
122.701,10.82,2.7,-9.71
122.711,10.63,4.39,-9.97
122.721,7.84,6.34,-11.78
122.731,4.96,7.7,-12.82
122.741,0.94,8.69,-13.48
122.751,-2.57,10.63,-12.63
122.761,-3.53,13.64,-10.69
122.771,-1.61,16.37,-9.95
122.782,1.39,18.32,-10.27
122.792,3.52,20.5,-10.54
122.802,5.06,22.13,-9.49
122.811,6.6,22.71,-7.45
122.822,8.44,22.76,-4.17
122.832,9.65,22.27,-0.55
122.842,9.22,20.86,2.25
122.852,8.18,18.53,3.95
122.862,6.91,16.08,4.85
122.872,6.57,14.39,5.35
122.882,6.59,13.55,5.12
122.892,6.33,12.98,4.39
122.902,6.99,12.19,3.48
122.912,7.78,11.4,2.82
122.922,8.51,11.06,2.38
122.932,9.04,11.1,1.5
122.943,8.9,10.37,0.83
122.952,8.83,8.91,0.88
122.963,8.74,7.34,1.08
122.973,8.07,5.79,1.68
122.983,7.69,4.02,2.57
122.993,7.81,2.16,3.37
123.003,8.05,0.5,4.41
123.013,8.34,-1.23,5.35
123.023,8.72,-2.49,5.67
123.033,9.83,-2.61,5.46
123.043,10.69,-1.71,5.79
123.053,11.44,-0.56,5.84
123.063,12.74,0.4,5.13
123.074,13.34,0.99,4.25
123.084,13.47,0.94,3.12
123.094,13.28,0.43,2.05
123.104,12.72,-0.64,2.52
123.114,12.8,-1.02,4.71
123.124,12.88,-0.73,6.52
123.134,12.6,-0.15,7.26
123.144,12.42,0.53,7.28
123.154,12.02,1.31,6.45
123.164,11.18,1.92,4.87
123.174,10.42,1.54,2.94
123.184,9.18,0.62,1.71
123.194,7.52,-0.16,1.84
123.205,6.5,-0.82,3.04
123.215,6.33,-1.58,4.37
123.225,6.64,-2.67,5.41
123.235,6.53,-3.99,6.32
123.245,6.31,-5.25,6.61
123.255,6.03,-6.15,6.1
123.265,5.83,-6.46,5.08
123.275,5.79,-6.17,3.75
123.285,6.32,-5.71,2.3
123.295,6.78,-5.43,1.31
123.305,6.82,-5.66,1.06
123.315,6.83,-6.18,1.62
123.326,6.35,-6.63,2.16
123.336,5.17,-7.04,2.54
123.346,4.18,-7.33,3.27
123.356,4.01,-7.38,3.87
123.366,4.36,-7.14,4.11
123.376,4.72,-6.61,4.35
123.386,5.44,-6.24,4.65
123.396,6.8,-6.16,4.84
123.406,8.01,-5.85,4.93
123.416,9.07,-5.45,4.7
123.426,10.18,-5.32,4.48
123.436,11.37,-5.43,4.45
123.446,12.14,-5.61,4.52
123.456,12.48,-5.73,4.4
123.467,13.25,-5.83,4.18
123.477,14.52,-5.95,3.98
123.487,16.07,-5.7,3.76
123.497,16.77,-5.58,3.43
123.507,16.31,-5.44,1.52
123.517,14.93,-5.66,-1.28
123.527,13.1,-6.2,-4.63
123.537,10.93,-6.63,-7.65
123.547,9.98,-7.03,-9.82
123.557,9.25,-6.98,-11.43
123.567,8.0,-6.24,-12.95
123.577,7.14,-5.73,-15.0
123.588,6.41,-5.49,-16.9
123.598,5.64,-5.04,-18.44
123.608,5.13,-4.48,-18.96
123.618,5.38,-3.32,-18.71
123.628,6.44,-1.89,-17.78
123.638,7.49,-1.16,-15.29
123.648,7.85,-0.69,-11.7
123.658,7.36,-0.26,-7.57
123.668,6.48,0.97,-3.77
123.678,5.44,2.9,-1.4
123.689,5.26,4.46,-0.57
123.698,5.06,5.69,-0.7
123.709,4.41,6.67,-1.39
123.719,4.09,7.53,-2.54
123.729,3.61,8.49,-3.64
123.739,3.12,9.21,-4.97
123.749,2.59,9.77,-5.9
123.759,1.84,10.07,-6.9
123.769,1.18,10.18,-7.63
123.779,1.15,10.18,-8.71
123.789,1.1,10.94,-10.57
123.799,0.79,11.94,-11.59
123.809,0.74,12.22,-11.3
123.819,0.53,11.88,-10.14
123.829,0.18,11.1,-8.82
123.839,-0.31,10.53,-7.26
123.85,-0.69,10.0,-5.7
123.86,-0.99,9.25,-4.16
123.87,-1.51,8.32,-2.58
123.88,-1.88,7.36,-1.34
123.89,-2.07,6.6,-0.59
123.9,-2.25,5.96,-0.36
123.91,-2.28,5.73,-1.05
123.92,-2.15,6.12,-1.71
123.93,-1.6,6.57,-2.06
123.94,-0.73,6.81,-2.13
123.95,0.33,6.46,-1.5
123.96,1.36,5.97,-1.1
123.971,2.46,5.45,-0.96
123.981,3.68,4.87,-1.8
123.991,4.5,5.16,-4.27
124.001,5.6,5.28,-6.18
124.011,7.2,4.16,-6.86
124.021,8.83,2.06,-7.19
124.031,10.4,-0.83,-7.01
124.041,11.93,-3.94,-6.63
124.052,12.57,-6.32,-6.01
124.061,12.15,-7.68,-6.16
124.071,11.43,-8.55,-7.41
124.081,10.58,-8.31,-8.86
124.092,10.0,-7.18,-10.36
124.102,10.25,-6.06,-12.08
124.112,11.54,-4.99,-13.41
124.122,13.03,-3.64,-12.36
124.132,14.5,-3.56,-9.89
124.142,15.39,-3.8,-8.63
124.152,14.09,-4.08,-8.16
124.162,11.54,-4.92,-7.9
124.172,9.14,-6.01,-8.2
124.182,7.44,-7.01,-8.0
124.192,7.06,-8.07,-6.83
124.202,7.74,-9.81,-5.33
124.212,8.54,-12.13,-4.21
124.222,8.59,-13.83,-2.78
124.233,9.16,-13.35,-1.75
124.243,11.02,-11.76,-0.79
124.253,13.95,-10.11,-0.15
124.263,16.43,-8.77,-0.12
124.273,17.15,-7.81,-0.04
124.283,17.71,-7.16,0.14
124.293,18.27,-7.09,0.13
124.303,18.51,-6.88,0.53
124.313,18.71,-6.28,0.99
124.323,18.75,-5.35,0.8
124.333,17.61,-4.36,0.72
124.344,15.6,-4.36,1.19
124.354,13.68,-5.29,2.19
124.363,11.94,-6.72,3.18
124.374,11.22,-6.71,3.36
124.384,10.13,-6.74,4.5
124.394,9.35,-7.61,5.58
124.404,9.27,-8.64,6.21
124.414,9.19,-9.23,6.71
124.424,9.09,-9.39,7.15
124.434,8.99,-9.33,7.69
124.444,8.93,-9.04,7.79
124.454,8.85,-8.81,7.29
124.464,8.77,-8.6,6.58
124.474,9.02,-8.47,5.75
124.484,9.65,-8.32,4.87
124.495,10.01,-7.74,4.45
124.505,9.75,-6.86,4.82
124.515,9.28,-6.03,5.55
124.525,8.61,-5.86,5.96
124.535,7.47,-6.33,5.94
124.545,5.84,-7.15,5.59
124.555,4.42,-8.09,5.26
124.565,4.01,-8.87,5.5
124.575,4.23,-8.93,6.18
124.585,4.45,-8.09,6.96
124.595,4.91,-7.06,8.14
124.605,5.76,-6.09,8.94
124.616,6.22,-5.08,9.12
124.626,5.94,-4.17,9.54
124.636,5.51,-3.08,10.08
124.646,4.91,-1.54,10.5
124.656,4.35,0.17,10.78
124.666,4.1,1.84,10.97
124.676,3.72,3.56,11.01
124.686,3.57,4.69,11.04
124.696,4.34,5.37,11.16
124.706,6.18,6.0,11.12
124.716,7.41,7.46,10.92
124.726,7.89,9.84,10.26
124.736,7.57,11.81,9.2
124.747,5.91,12.7,7.88
124.757,4.01,12.76,6.66
124.767,4.2,13.74,5.96
124.777,6.37,15.77,4.55
124.787,10.08,16.32,3.46
124.797,14.76,17.12,1.88
124.807,17.83,17.2,-0.01
124.817,18.62,15.44,-1.69
124.827,18.46,13.24,-3.91
124.837,18.3,11.63,-6.04
124.847,17.35,10.95,-7.68
124.858,15.5,11.37,-9.12
124.867,12.96,11.69,-10.3
124.878,10.23,11.0,-10.49
124.888,8.29,9.5,-9.85
124.898,8.09,7.29,-8.03
124.908,9.36,4.94,-5.09
124.918,10.51,3.96,-2.88
124.928,10.58,3.93,-2.66
124.938,9.47,3.34,-4.04
124.948,7.65,2.07,-6.39
124.958,5.84,0.23,-8.3
124.968,4.22,-2.12,-9.02
124.978,2.42,-4.24,-9.05
124.988,0.96,-5.53,-8.85
124.999,0.03,-6.27,-8.49
125.008,-0.13,-6.97,-7.76
125.019,0.65,-7.54,-7.53
125.029,1.87,-7.57,-7.95
125.039,3.0,-7.53,-7.91
125.049,4.1,-7.49,-7.47
125.059,4.82,-7.22,-6.87
125.069,5.04,-7.14,-6.42
125.079,5.28,-7.26,-6.05
125.089,5.25,-7.28,-5.42
125.099,5.17,-7.12,-4.82
125.109,5.33,-6.69,-4.15
125.119,5.98,-5.91,-3.82
125.129,6.77,-4.49,-4.27
125.14,7.09,-3.07,-5.07
125.15,7.14,-1.68,-5.91
125.16,7.3,-0.43,-6.34
125.17,7.01,0.01,-5.44
125.18,5.53,-0.13,-4.25
125.19,2.87,-0.22,-5.16
125.2,0.0,0.24,-7.72
125.21,0.16,2.18,-9.71
125.22,1.94,4.85,-10.84
125.23,3.39,7.76,-12.32
125.24,3.94,10.9,-14.32
125.25,4.21,13.7,-16.25
125.261,5.28,15.8,-17.6
125.271,7.31,17.55,-17.5
125.281,9.97,19.02,-15.29
125.291,12.65,20.21,-11.48
125.301,14.82,21.25,-7.91
125.311,16.01,22.42,-5.54
125.321,15.91,23.49,-4.53
125.331,14.19,23.55,-3.71
125.341,12.2,22.8,-2.5
125.351,10.7,21.57,0.2
125.361,9.0,20.16,4.25
125.371,7.07,18.89,7.98
125.381,5.36,17.57,10.08
125.391,4.11,15.74,10.16
125.402,3.26,13.76,9.02
125.412,2.94,11.93,7.6
125.422,3.21,10.26,6.51
125.432,4.35,9.17,5.59
125.442,5.49,9.27,4.44
125.452,5.49,8.79,4.16
125.462,6.22,7.96,3.98
125.472,7.46,7.32,3.64
125.485,8.26,6.69,3.69
125.492,9.21,5.72,4.25
125.503,10.73,4.83,4.42
125.513,12.53,4.08,3.65
125.523,14.5,3.4,2.34
125.533,16.26,2.36,1.09
125.543,17.83,-0.25,0.25
125.553,20.55,-4.3,1.93
125.563,17.0,-7.73,1.57
125.573,14.43,-10.03,2.03
125.583,12.82,-11.65,5.07
125.593,10.72,-10.44,7.75
125.603,10.99,-6.35,9.87
125.613,12.27,-2.21,10.64
125.623,12.94,-0.56,9.54
125.633,12.64,-1.63,7.31
125.643,11.65,-3.93,4.76
125.653,10.55,-5.77,3.33
125.664,9.16,-6.66,2.55
125.674,7.43,-7.39,1.84
125.684,5.3,-8.2,1.43
125.694,3.85,-9.09,1.48
125.704,3.75,-9.69,2.03
125.714,4.61,-9.91,2.45
125.724,6.07,-9.58,3.41
125.734,7.33,-9.32,3.44
125.744,7.48,-9.26,2.35
125.754,7.22,-8.69,1.27
