timestamp,ax,ay,az
235.257,5.42,3.51,4.16
235.267,4.95,3.68,3.36
235.277,4.11,3.49,2.03
235.287,3.07,3.21,0.48
235.297,1.88,2.86,-1.0
235.307,0.7,2.45,-2.18
235.317,-0.43,2.01,-2.57
235.327,-1.22,1.69,-2.07
235.337,-1.43,1.43,-1.14
235.347,-1.39,1.26,-0.34
235.357,-1.07,1.17,0.07
235.367,-0.8,1.14,0.2
235.378,-0.47,1.18,0.12
235.388,-0.36,1.36,-0.08
235.398,-0.53,1.45,-0.28
235.408,-0.91,1.62,-0.33
235.418,-1.57,1.79,-0.48
235.428,-1.97,1.88,-0.7
235.438,-1.67,2.13,-0.62
235.448,-1.45,2.14,-0.07
235.458,-1.21,1.85,0.63
235.468,-1.34,1.69,1.17
235.478,-1.83,1.45,1.43
235.488,-1.94,1.48,1.38
235.498,-2.04,1.7,1.27
235.509,-2.11,1.9,0.8
235.519,-2.04,2.03,0.51
235.529,-2.22,1.97,0.29
235.539,-2.12,1.65,0.01
235.549,-1.49,1.5,-0.01
235.559,-1.03,1.21,0.07
235.569,-1.17,0.79,0.14
235.579,-1.99,0.35,-0.08
235.589,-2.71,-0.16,-0.42
235.599,-3.42,-0.64,-0.32
235.609,-3.51,-1.07,0.31
235.619,-3.14,-1.34,1.25
235.63,-2.81,-1.29,1.79
235.64,-2.36,-1.11,1.69
235.65,-2.38,-0.9,1.42
235.66,-2.72,-0.85,0.98
235.67,-2.7,-0.69,0.67
235.68,-2.72,-0.44,0.47
235.69,-2.96,-0.4,0.39
235.7,-3.23,-0.21,0.33
235.71,-3.19,0.02,0.17
235.72,-3.13,0.34,-0.27
235.73,-3.34,0.79,-0.87
235.74,-4.04,0.98,-1.45
235.75,-4.66,0.77,-1.96
235.76,-4.53,0.4,-2.16
235.771,-3.77,-0.12,-1.58
235.781,-2.76,-0.93,-0.22
235.791,-1.54,-1.87,1.68
235.801,-0.67,-2.58,3.56
235.811,-0.52,-3.0,4.84
235.821,-1.12,-3.22,5.12
235.831,-1.79,-3.2,4.28
235.841,-2.06,-3.02,2.96
235.851,-2.22,-2.73,1.94
235.861,-2.06,-2.31,1.37
235.872,-1.65,-2.01,1.1
235.881,-1.44,-1.94,0.98
235.891,-1.36,-1.97,0.89
235.902,-1.32,-2.13,0.87
235.912,-1.27,-2.26,0.88
235.922,-1.32,-2.43,0.66
235.932,-1.52,-2.66,0.29
235.942,-2.22,-2.91,-0.24
235.952,-3.1,-3.08,-0.96
235.962,-3.54,-3.03,-1.69
235.972,-3.37,-2.92,-1.88
235.982,-2.73,-2.55,-1.37
235.992,-1.78,-2.22,-0.56
236.002,-1.0,-1.9,0.17
236.012,0.01,-1.68,0.45
236.023,1.08,-1.36,0.21
236.033,2.08,-1.07,-0.39
236.043,2.35,-1.13,-0.68
236.053,2.42,-1.17,-0.59
236.063,2.11,-1.23,-0.32
236.073,1.23,-1.25,-0.3
236.083,0.84,-1.26,-0.7
236.093,1.02,-1.23,-0.58
236.103,1.61,-1.11,0.24
236.113,2.12,-1.32,1.13
236.123,2.44,-1.51,1.72
236.133,3.02,-1.77,2.08
236.143,3.66,-1.81,2.16
236.154,4.07,-1.65,1.69
236.164,4.64,-1.37,0.93
236.174,4.87,-1.13,0.25
236.184,5.53,-0.63,-0.13
236.194,6.37,-0.17,0.2
236.204,6.69,0.14,0.9
236.214,7.16,0.5,1.55
236.224,7.91,1.11,2.16
236.234,8.6,1.93,2.39
236.244,8.85,2.45,2.11
236.254,8.9,2.82,1.6
236.264,8.69,2.99,1.29
236.275,8.43,2.83,1.21
236.285,7.68,2.42,1.31
236.295,6.65,1.95,1.41
236.305,5.65,1.67,1.66
236.315,4.81,1.55,2.07
236.325,4.07,1.51,2.37
236.335,3.24,1.41,2.31
236.345,2.3,1.18,1.78
236.355,1.34,0.89,0.96
236.365,0.33,0.66,0.01
236.375,-0.89,0.39,-1.05
236.385,-2.21,0.18,-2.17
236.395,-3.02,-0.02,-3.16
236.406,-3.51,-0.13,-3.68
236.416,-3.51,-0.01,-3.74
236.426,-3.23,-0.02,-3.32
236.436,-2.85,-0.06,-2.65
236.446,-2.28,-0.06,-2.04
236.456,-2.01,-0.11,-1.33
236.466,-2.0,-0.19,-0.75
236.476,-1.81,-0.04,-0.34
236.486,-1.24,0.28,-0.0
236.496,-0.18,0.88,0.2
236.506,0.51,1.31,0.31
236.516,1.03,1.82,0.44
236.526,1.5,2.43,0.75
236.536,1.83,2.76,1.1
236.546,2.15,2.97,1.57
236.557,2.34,3.29,2.06
236.567,2.25,3.48,2.39
236.577,1.84,3.33,2.56
236.587,1.12,3.17,2.49
236.597,0.68,3.01,2.29
236.607,0.19,2.91,1.79
236.617,-0.45,2.63,0.91
236.627,-1.01,2.26,0.13
236.637,-1.44,1.89,-0.31
236.647,-1.77,1.51,-0.47
236.657,-2.11,1.02,-0.33
236.668,-2.5,0.44,-0.07
236.678,-3.1,-0.22,0.2
236.688,-3.96,-0.79,0.27
236.698,-4.9,-1.36,0.08
236.708,-5.63,-1.76,-0.01
236.718,-5.93,-1.67,-0.14
236.728,-6.08,-1.19,-0.52
236.738,-6.81,-0.77,-1.11
236.748,-7.96,-0.35,-1.85
236.758,-9.0,-0.05,-2.82
236.768,-9.56,0.11,-3.62
236.778,-9.97,0.39,-4.12
236.788,-10.21,0.79,-4.31
236.798,-9.89,1.06,-3.8
236.809,-9.26,1.34,-2.64
236.819,-8.38,1.97,-1.28
236.829,-6.97,2.97,0.5
236.839,-5.34,4.55,2.51
236.849,-3.56,5.9,4.34
236.859,-1.5,6.39,5.54
236.869,0.69,6.32,6.06
236.879,2.69,6.02,5.99
236.889,4.14,5.25,5.31
236.899,4.73,4.23,4.24
236.909,4.28,3.23,2.86
236.92,2.9,2.19,1.48
236.93,1.32,1.24,0.44
236.94,0.07,0.24,-0.09
236.95,-0.94,-0.61,0.15
236.96,-1.43,-1.28,1.01
236.97,-1.4,-1.79,1.95
236.98,-0.84,-2.19,2.56
236.99,-0.13,-2.59,2.66
237.0,0.38,-2.83,2.07
237.01,0.75,-2.71,0.89
237.02,0.71,-2.27,-0.57
237.03,0.64,-1.98,-2.03
237.04,0.98,-1.71,-3.02
237.05,1.51,-1.3,-3.03
237.061,2.09,-0.95,-2.08
237.071,2.39,-0.88,-0.76
237.081,2.69,-1.02,0.39
237.091,3.25,-1.28,1.44
237.101,3.66,-1.61,2.2
237.111,3.87,-1.85,2.61
237.121,4.19,-1.86,2.79
237.131,4.44,-1.82,2.79
237.141,4.49,-1.83,2.46
237.151,4.0,-2.02,1.73
237.161,2.98,-2.43,0.66
237.171,2.14,-2.91,-0.4
237.182,1.55,-3.53,-1.31
237.192,1.28,-4.48,-2.06
237.202,1.12,-5.64,-2.43
237.212,0.77,-6.79,-2.57
237.222,0.29,-7.82,-2.56
237.232,-0.33,-8.48,-2.36
237.242,-0.75,-8.57,-2.08
237.252,-0.58,-8.22,-1.92
237.262,0.03,-7.58,-1.79
237.272,0.87,-6.74,-1.56
237.282,1.97,-5.89,-1.23
237.292,3.14,-5.08,-0.62
237.303,4.0,-4.1,0.02
237.313,4.99,-2.79,0.3
237.323,6.11,-1.21,0.54
237.333,6.68,0.33,0.98
237.343,7.07,1.68,1.52
237.353,7.75,2.89,2.31
237.363,8.07,4.04,3.04
237.373,8.01,5.19,3.34
237.383,8.39,6.14,3.2
237.393,9.12,6.79,2.84
237.403,9.11,7.32,2.24
237.413,7.96,7.35,1.43
237.423,6.31,6.91,0.74
237.433,4.44,6.39,0.37
237.443,2.45,6.1,0.2
237.453,0.59,5.99,0.11
237.464,-0.76,6.23,0.18
237.474,-1.74,6.71,0.32
237.484,-2.69,6.89,0.54
237.494,-3.32,6.89,0.91
237.504,-3.43,6.85,1.48
237.514,-3.41,6.86,2.02
237.524,-3.16,6.74,2.5
237.534,-2.92,6.36,2.85
237.544,-2.83,5.83,2.93
237.554,-2.74,5.35,2.81
237.564,-2.75,4.9,2.5
237.574,-2.62,4.55,2.16
237.585,-2.74,4.03,1.87
237.595,-3.2,3.15,1.72
237.605,-3.71,2.21,1.93
237.615,-4.16,1.36,2.4
237.625,-4.4,0.43,2.89
237.635,-4.43,-0.43,3.39
237.645,-4.44,-1.11,3.65
237.655,-4.43,-1.66,3.62
237.665,-4.47,-2.12,3.39
237.675,-4.21,-2.01,3.44
237.685,-3.76,-2.27,3.05
237.695,-3.6,-2.99,2.3
237.706,-3.18,-3.58,1.69
237.716,-2.56,-4.13,1.31
237.726,-1.92,-4.81,0.99
237.736,-1.39,-5.46,0.57
237.746,-0.96,-6.11,0.01
237.756,-0.59,-6.93,-0.57
237.766,-0.25,-7.99,-1.13
237.776,0.08,-9.26,-1.75
237.786,0.38,-10.61,-2.49
237.796,0.5,-12.05,-3.41
237.806,0.63,-13.56,-4.4
237.816,0.97,-15.23,-5.22
237.827,2.05,-16.86,-4.83
237.837,3.21,-16.64,-5.27
237.847,3.62,-15.23,-5.13
237.857,4.9,-13.02,-4.73
237.867,6.94,-10.12,-5.27
237.877,10.17,-6.35,-5.46
237.887,14.5,-1.64,-4.49
237.897,20.89,3.13,-0.96
237.907,28.39,6.26,5.6
237.918,33.44,7.04,12.02
237.927,32.01,6.72,14.86
237.937,24.13,6.35,13.01
237.947,15.09,5.46,8.92
237.958,8.02,4.64,5.5
237.968,3.32,4.15,3.35
237.978,0.88,3.78,2.46
237.988,0.09,4.12,2.23
237.998,0.48,4.94,2.03
238.008,0.74,5.97,1.82
238.018,0.96,7.17,1.67
238.028,1.53,8.31,1.96
238.038,2.59,9.27,3.11
238.048,3.15,9.87,5.17
238.058,2.86,10.0,7.96
238.068,1.9,9.63,10.39
238.078,0.47,8.85,11.72
238.089,-1.45,7.98,12.19
238.099,-3.63,7.3,11.9
238.109,-5.45,6.64,10.88
238.119,-6.67,5.96,9.47
238.129,-7.45,5.32,8.16
238.139,-7.96,4.6,7.07
238.149,-8.26,3.74,6.16
238.159,-8.22,2.75,5.54
238.169,-7.9,1.69,5.24
238.179,-7.52,0.62,5.14
238.19,-7.25,-0.29,5.14
238.199,-7.1,-1.05,5.17
238.209,-7.07,-1.83,5.06
238.22,-7.19,-2.67,4.79
238.23,-7.49,-3.39,4.46
238.24,-7.81,-3.97,4.0
238.25,-8.02,-4.52,3.34
238.26,-8.0,-5.05,2.68
238.27,-7.74,-5.59,2.06
238.28,-7.34,-6.16,1.39
238.29,-6.9,-6.46,1.0
238.3,-6.5,-6.88,0.67
238.31,-6.27,-7.37,0.51
238.32,-6.17,-7.69,0.43
238.33,-6.09,-7.79,0.35
238.341,-5.94,-7.77,0.25
238.351,-5.63,-7.73,0.09
238.361,-5.14,-7.58,-0.21
238.371,-4.31,-7.24,-0.44
238.381,-2.86,-6.81,-0.44
238.391,-1.46,-6.19,-0.38
238.401,-0.6,-5.4,-0.38
238.411,-0.06,-4.6,0.14
238.421,-1.04,-3.12,-1.1
238.431,-1.71,-1.47,-1.37
238.441,-0.58,-0.53,-1.07
238.451,1.61,0.29,0.04
238.461,3.33,1.59,1.95
238.472,4.67,3.17,3.86
238.482,5.92,4.74,5.12
238.492,7.27,6.28,5.73
238.502,8.12,7.16,5.99
238.512,7.61,7.51,5.87
238.522,5.85,7.48,5.24
238.532,3.6,7.09,3.77
238.542,1.74,6.5,2.09
238.552,0.59,6.07,0.86
238.562,0.14,5.79,0.11
238.572,-0.19,5.49,-0.52
238.582,-0.46,5.14,-1.22
238.592,-0.71,4.82,-2.1
238.603,-0.92,4.53,-3.16
238.613,-1.25,4.47,-4.46
238.623,-1.28,4.46,-5.63
238.633,-1.04,4.5,-6.43
238.643,-0.4,4.58,-6.9
238.653,0.35,4.8,-7.02
238.663,0.97,5.28,-6.13
238.673,1.67,6.02,-4.47
238.683,2.5,6.64,-1.62
238.693,3.78,7.19,1.92
238.703,5.41,7.0,5.04
238.713,6.63,6.87,6.96
238.723,7.03,7.33,7.65
238.734,6.27,6.66,7.1
238.743,5.39,5.56,5.88
238.754,4.6,5.23,4.73
238.764,4.19,4.67,3.75
238.774,3.81,3.93,3.14
238.784,3.56,3.04,3.09
238.794,3.36,1.84,3.08
238.804,2.79,0.69,2.78
238.814,1.79,-0.56,2.23
238.824,0.74,-1.98,1.54
238.834,-0.06,-3.26,0.88
238.844,-0.59,-4.41,0.46
238.854,-1.65,-5.7,0.34
238.864,-2.93,-6.92,-0.04
238.874,-4.16,-7.72,-0.68
238.885,-5.26,-8.23,-1.22
238.895,-6.33,-8.72,-1.45
238.905,-7.17,-9.11,-1.54
238.915,-7.72,-9.15,-1.56
238.925,-7.78,-9.06,-1.05
238.935,-6.76,-8.93,-0.67
238.945,-5.27,-8.44,-0.82
238.955,-4.17,-7.87,-0.44
238.965,-3.11,-7.39,-0.19
238.975,-1.94,-6.73,-0.19
238.985,-0.94,-5.92,0.08
238.995,0.25,-4.99,0.45
239.006,1.4,-3.88,0.63
239.016,2.66,-2.62,0.85
239.026,4.82,-1.33,1.17
239.036,7.31,-0.06,1.46
239.046,8.52,0.87,1.43
239.056,8.36,1.01,0.97
239.066,7.21,0.64,0.29
239.076,5.81,0.16,-0.45
239.086,4.99,-0.23,-1.01
239.096,4.82,-0.36,-1.05
239.106,4.98,-0.5,-0.54
239.117,5.14,-0.61,0.2
239.127,4.97,-0.62,0.88
239.137,4.71,-0.55,1.43
239.147,4.47,-0.63,2.13
239.157,4.26,-0.85,2.88
239.168,3.9,-1.22,3.7
239.177,3.35,-1.59,4.15
239.187,2.57,-1.92,4.02
239.197,1.93,-2.25,3.67
239.207,1.54,-2.47,3.57
239.217,1.57,-2.57,3.73
239.227,2.03,-2.54,4.04
239.237,2.74,-2.24,4.45
239.247,3.63,-1.37,4.38
239.258,4.64,0.11,4.19
239.268,5.91,1.82,4.25
239.277,7.24,3.51,4.03
239.288,7.77,5.07,3.85
239.298,7.42,5.8,3.44
239.308,6.19,5.81,2.92
239.318,4.19,5.6,2.44
239.328,2.37,5.65,2.13
239.338,0.93,5.96,2.08
239.348,-0.51,6.16,2.19
239.358,-1.87,6.3,2.15
239.369,-2.37,6.15,1.94
239.379,-2.37,6.13,1.49
239.388,-1.91,6.26,1.14
239.398,-1.8,6.85,0.95
239.409,-1.82,7.77,0.68
239.419,-1.61,8.8,0.52
239.429,-1.42,9.45,0.52
239.439,-1.58,9.41,0.63
239.449,-2.52,9.09,0.67
239.459,-3.97,8.86,0.87
239.469,-5.17,8.95,1.42
239.479,-5.45,9.12,2.24
239.489,-4.99,9.26,2.83
239.499,-4.03,9.3,2.84
239.509,-3.0,8.82,2.4
239.52,-2.08,7.53,1.85
239.53,-1.32,5.72,1.5
239.54,-0.64,3.69,1.45
239.55,-0.38,1.32,1.58
239.56,-0.64,-1.23,1.69
239.57,-1.34,-3.67,1.48
239.58,-2.32,-5.73,0.86
239.59,-3.21,-7.1,-0.0
239.6,-3.92,-7.66,-0.9
239.61,-4.37,-7.9,-1.88
239.62,-4.37,-8.0,-2.69
239.63,-4.1,-8.16,-2.94
239.641,-3.81,-8.45,-2.81
239.651,-3.59,-8.84,-2.43
239.661,-2.91,-8.88,-1.82
239.671,-1.67,-8.41,-1.29
239.681,-0.03,-7.76,-0.98
239.691,1.66,-6.93,-0.65
239.701,3.37,-5.66,-0.15
239.711,4.93,-4.52,0.22
239.721,5.91,-3.82,0.44
239.731,6.29,-3.22,0.63
239.741,6.38,-2.86,1.0
239.751,6.36,-2.87,1.45
239.761,6.3,-3.2,1.88
239.772,6.01,-3.45,2.57
239.782,6.3,-3.63,3.57
239.792,7.37,-3.5,4.95
239.802,8.06,-3.65,6.48
239.812,7.97,-3.99,7.48
239.822,7.13,-3.88,7.28
239.832,5.81,-3.83,5.77
239.842,4.5,-3.95,3.89
239.852,3.01,-4.46,2.15
239.863,1.48,-5.2,0.62
239.872,0.09,-5.88,-0.66
239.882,-1.26,-6.42,-1.46
239.893,-2.73,-6.69,-1.94
239.903,-4.11,-7.14,-2.33
239.913,-5.51,-7.46,-2.4
239.923,-5.87,-7.14,-2.55
239.933,-4.99,-7.12,-2.95
239.943,-3.28,-6.93,-3.46
239.953,-0.51,-6.44,-4.37
239.963,2.56,-6.21,-5.52
239.973,5.51,-6.22,-6.72
239.983,7.33,-6.34,-7.16
239.993,8.05,-6.19,-6.1
240.003,8.94,-4.7,-3.4
240.013,11.42,-1.63,0.89
240.024,16.34,1.84,6.63
240.034,21.04,5.04,12.7
240.044,22.82,7.19,16.76
240.054,20.44,7.38,16.89
240.064,15.56,6.4,12.91
240.074,10.64,4.63,7.85
240.084,6.56,3.52,3.95
240.094,4.25,2.99,1.48
240.104,3.44,2.66,0.83
240.114,2.88,2.19,0.95
240.124,2.5,1.95,0.83
240.134,2.29,2.16,0.62
240.144,1.8,2.38,0.31
240.155,0.63,2.44,0.11
240.165,-0.19,2.69,0.42
240.175,-0.29,3.38,1.34
240.185,-0.29,3.98,2.65
240.195,-0.9,4.55,4.33
240.205,-2.34,5.01,6.07
240.215,-3.89,5.61,7.52
240.225,-5.13,6.9,8.85
240.235,-5.44,8.64,9.66
