timestamp,ax,ay,az
243.269,-1.57,-7.45,-1.39
243.279,-2.23,-8.02,-1.86
243.289,-3.12,-8.47,-2.38
243.299,-4.07,-8.83,-3.03
243.309,-4.81,-9.21,-3.79
243.319,-5.16,-9.6,-4.48
243.329,-5.33,-9.79,-4.89
243.339,-5.41,-9.68,-4.81
243.349,-4.98,-9.34,-4.2
243.36,-4.33,-8.66,-3.31
243.37,-3.06,-7.6,-2.33
243.38,-0.48,-6.14,-1.04
243.39,2.1,-4.37,0.78
243.4,4.61,-2.38,2.94
243.41,7.18,-0.48,5.04
243.42,9.19,1.48,7.34
243.43,9.77,3.79,9.12
243.44,10.27,5.1,9.7
243.45,10.78,5.45,9.64
243.46,10.65,5.86,9.41
243.47,10.53,5.97,8.7
243.48,10.36,5.69,7.36
243.491,10.0,5.13,5.93
243.501,8.85,4.3,4.56
243.511,7.14,3.14,2.84
243.521,5.11,1.79,1.05
243.531,2.97,0.42,-0.43
243.541,1.17,-0.66,-1.61
243.551,0.06,-1.31,-2.54
243.561,-0.56,-1.55,-2.95
243.571,-1.1,-1.66,-2.82
243.581,-1.37,-1.53,-2.44
243.591,-1.08,-1.15,-1.91
243.601,-0.58,-0.65,-1.25
243.611,-0.25,0.08,-0.58
243.621,0.56,1.09,0.1
243.632,1.5,2.03,1.18
243.642,2.47,2.94,2.39
243.652,3.58,3.97,3.61
243.662,4.13,4.58,4.8
243.672,4.19,4.59,5.68
243.682,3.71,4.4,6.1
243.692,2.78,4.2,6.01
243.702,1.83,4.0,5.32
243.712,1.11,4.0,4.59
243.722,0.69,3.96,3.87
243.732,0.05,3.61,3.06
243.743,-0.6,3.34,2.25
243.753,-0.93,3.41,1.54
243.763,-0.82,3.71,0.81
243.773,-0.66,4.03,-0.05
243.783,-0.47,4.29,-0.76
243.793,-0.25,4.57,-1.41
243.803,-0.1,4.94,-2.41
243.813,0.14,5.19,-3.46
243.823,0.69,5.45,-4.11
243.833,1.3,5.66,-4.36
243.843,1.51,5.53,-4.25
243.853,1.48,5.23,-3.92
243.863,1.32,4.82,-3.49
243.874,1.07,4.29,-3.01
243.883,0.55,3.66,-2.43
243.894,-0.1,2.84,-1.82
243.904,-0.6,2.0,-1.06
243.914,-0.8,1.13,-0.26
243.924,-0.95,0.21,0.53
243.934,-1.39,-0.75,1.04
243.944,-2.01,-1.65,1.29
243.954,-2.73,-2.46,1.34
243.964,-3.31,-3.15,1.32
243.974,-3.77,-3.72,1.34
243.984,-4.15,-4.18,1.38
243.994,-4.64,-4.65,1.24
244.004,-4.61,-5.08,0.98
244.014,-4.15,-5.12,1.01
244.025,-3.76,-4.71,1.25
244.035,-3.29,-4.22,1.55
244.045,-2.35,-3.85,1.6
244.055,-1.2,-3.83,1.61
244.065,-0.12,-4.03,2.14
244.075,0.97,-4.26,3.41
244.085,2.51,-4.05,5.25
244.095,4.89,-3.28,7.17
244.105,7.49,-2.38,8.94
244.115,9.85,-1.44,10.09
244.125,11.34,-0.67,10.35
244.135,11.69,-0.22,9.54
244.146,11.04,-0.38,7.71
244.156,9.43,-1.07,5.51
244.166,7.47,-1.81,3.55
244.176,5.68,-2.67,2.26
244.186,4.06,-3.75,1.7
244.196,2.49,-4.81,1.71
244.206,1.09,-5.78,2.31
244.216,-0.02,-6.41,3.33
244.226,-0.88,-6.67,4.29
244.236,-1.66,-6.59,5.0
244.246,-2.13,-6.06,5.36
244.256,-2.11,-5.15,5.33
244.267,-2.05,-4.23,4.8
244.277,-2.06,-3.42,3.79
244.287,-1.58,-2.48,2.43
244.297,-1.12,-1.55,1.02
244.307,-0.56,-0.8,-0.09
244.317,-0.11,0.07,-0.46
244.327,0.64,0.84,-0.26
244.337,1.27,1.58,0.23
244.347,1.78,2.14,0.86
244.357,1.8,2.28,1.69
244.367,1.11,2.09,2.64
244.377,0.14,2.03,3.6
244.387,-0.68,2.02,4.27
244.397,-1.38,2.34,4.55
244.407,-1.69,3.07,4.27
244.418,-1.95,4.04,3.27
244.428,-2.1,4.99,2.08
244.438,-1.91,5.81,0.74
244.448,-1.68,6.56,-0.68
244.458,-1.33,7.02,-1.98
244.468,-0.61,7.25,-2.71
244.478,0.31,7.49,-2.68
244.488,1.35,7.54,-2.23
244.498,2.17,7.23,-1.54
244.508,1.95,6.66,-0.76
244.518,0.99,5.9,-0.12
244.528,-0.06,4.93,0.23
244.538,-1.06,4.08,0.54
244.549,-1.76,3.52,0.55
244.559,-2.3,3.11,0.14
244.569,-2.85,2.73,-0.46
244.579,-3.28,2.45,-1.28
244.589,-3.49,2.25,-2.02
244.599,-3.5,2.14,-2.56
244.609,-3.54,2.04,-2.99
244.619,-3.57,1.86,-3.32
244.629,-3.7,1.64,-3.41
244.64,-3.77,1.33,-3.3
244.649,-3.62,1.1,-2.94
244.66,-3.71,1.04,-2.33
244.67,-3.98,1.1,-1.7
244.68,-3.97,0.84,-1.15
244.69,-3.9,0.59,-0.68
244.7,-3.89,0.4,-0.24
244.71,-3.88,0.19,0.2
244.72,-3.89,-0.01,0.44
244.73,-3.82,-0.13,0.26
244.74,-3.64,-0.3,-0.11
244.75,-3.44,-0.44,-0.28
244.76,-3.44,-0.63,-0.03
244.77,-3.45,-1.17,0.54
244.78,-3.25,-1.82,1.32
244.791,-3.02,-2.3,2.04
244.801,-2.73,-2.75,2.36
244.811,-2.43,-3.33,2.31
244.821,-2.41,-3.86,2.05
244.831,-2.47,-4.33,1.63
244.841,-2.19,-4.71,1.2
244.851,-1.6,-4.91,1.17
244.861,-0.92,-5.07,1.46
244.871,-0.52,-5.24,1.63
244.881,-0.59,-5.47,1.21
244.891,-0.95,-5.59,0.11
244.901,-1.29,-5.87,-0.9
244.911,-1.68,-6.21,-1.08
244.922,-2.4,-6.21,-0.81
244.932,-3.03,-5.77,-0.07
244.942,-3.23,-4.84,0.71
244.952,-3.39,-3.27,1.5
244.962,-2.93,-1.56,2.04
244.972,-1.66,0.58,2.34
244.982,-0.54,2.89,2.4
244.992,0.7,4.47,1.73
245.002,1.72,5.62,0.7
245.012,2.35,6.72,-0.43
245.022,2.4,7.11,-1.33
245.033,1.65,6.66,-1.57
245.043,0.28,5.85,-1.04
245.053,-1.43,4.93,-0.29
245.063,-2.98,3.94,0.38
245.073,-4.14,3.11,0.82
245.083,-4.74,2.79,0.83
245.093,-4.15,2.87,0.43
245.103,-2.71,3.19,-0.1
245.113,-1.05,3.8,-0.34
245.123,0.69,4.41,-0.71
245.133,2.11,4.76,-1.35
245.143,2.92,4.77,-2.07
245.154,2.93,4.61,-2.69
245.163,2.34,4.34,-3.23
245.174,1.39,3.95,-3.53
245.184,0.63,3.39,-3.41
245.194,0.09,2.84,-2.81
245.204,-0.57,2.25,-1.64
245.214,-1.26,1.65,-0.12
245.224,-1.62,1.05,1.28
245.234,-1.43,0.8,2.38
245.244,-0.81,0.76,3.18
245.254,-0.33,0.79,3.68
245.264,0.09,0.91,3.66
245.274,0.4,1.27,3.19
245.284,0.41,1.77,2.51
245.294,0.49,2.15,1.91
245.305,0.8,2.27,1.5
245.315,1.42,2.17,1.41
245.325,1.81,1.94,1.54
245.335,1.87,1.42,1.58
245.345,1.71,0.8,1.38
245.355,1.44,0.08,1.0
245.365,1.05,-0.72,0.53
245.375,0.46,-1.47,0.01
245.385,-0.32,-2.15,-0.53
245.395,-1.3,-2.84,-1.03
245.405,-2.51,-3.53,-1.43
245.415,-3.8,-4.16,-1.79
245.425,-4.83,-4.74,-2.16
245.436,-5.56,-5.2,-2.31
245.446,-6.38,-5.6,-2.28
245.456,-7.31,-6.09,-2.05
245.466,-8.02,-6.57,-1.68
245.476,-8.59,-7.09,-1.37
245.486,-9.03,-7.62,-1.21
245.496,-9.28,-8.15,-1.04
245.506,-9.38,-8.65,-0.81
245.516,-9.49,-8.98,-0.31
245.526,-9.12,-8.96,0.36
245.536,-7.93,-8.51,1.22
245.546,-6.66,-7.42,2.63
245.556,-5.28,-5.6,4.9
245.567,-3.15,-2.81,7.55
245.577,-0.34,0.43,9.69
245.587,3.41,2.99,10.9
245.597,7.62,5.08,10.87
245.607,10.16,6.51,9.67
245.617,10.59,6.95,8.67
245.627,10.53,6.63,8.37
245.637,11.26,5.89,8.71
245.647,11.96,5.1,9.69
245.657,12.15,4.08,9.98
245.667,11.41,2.72,9.02
245.678,9.87,1.45,7.39
245.688,8.37,0.42,5.62
245.698,7.46,-0.25,3.77
245.708,6.7,-0.52,2.19
245.718,5.97,-0.81,0.83
245.728,5.18,-1.35,-0.36
245.738,4.24,-2.05,-1.16
245.748,3.21,-2.85,-1.55
245.758,2.3,-3.66,-1.56
245.768,1.45,-4.24,-1.37
245.778,0.63,-4.71,-1.13
245.788,0.05,-4.98,-0.88
245.798,-0.3,-5.05,-0.86
245.809,-0.35,-4.93,-0.99
245.819,0.13,-4.65,-1.14
245.829,0.84,-4.23,-1.17
245.839,1.77,-3.96,-0.93
245.849,2.66,-3.77,-0.33
245.859,3.34,-3.65,0.52
245.869,3.9,-3.38,1.51
245.879,4.32,-2.88,2.51
245.889,4.62,-2.35,3.49
245.899,4.83,-1.71,3.99
245.909,4.7,-1.24,3.67
245.919,4.1,-0.81,3.01
245.929,3.46,-0.23,2.25
245.94,3.04,0.66,1.42
245.95,2.99,1.69,0.76
245.96,3.22,2.65,0.43
245.97,3.56,4.07,0.25
245.98,3.81,5.74,-0.14
245.99,4.15,7.31,-0.57
246.0,4.07,8.57,-0.58
246.01,3.41,9.96,-0.25
246.02,2.43,11.34,0.12
246.031,1.08,12.71,0.57
246.041,-0.3,13.95,0.94
246.051,-1.76,14.49,0.98
246.061,-2.52,14.48,0.69
246.071,-2.57,14.0,0.4
246.08,-2.49,12.84,0.16
246.091,-2.56,11.12,0.38
246.101,-2.44,9.06,1.17
246.111,-2.32,7.16,2.23
246.121,-2.33,5.3,3.37
246.131,-2.65,3.34,4.49
246.141,-3.47,1.38,5.32
246.151,-4.39,-0.62,5.56
246.161,-5.4,-2.43,5.13
246.171,-6.21,-3.82,4.18
246.181,-6.77,-4.81,2.88
246.192,-6.97,-5.52,1.6
246.202,-7.12,-6.01,0.38
246.212,-7.22,-6.54,-0.65
246.222,-6.93,-6.8,-1.22
246.232,-5.71,-6.85,-1.39
246.242,-3.64,-6.56,-0.84
246.252,-1.23,-5.99,0.62
246.262,1.08,-5.41,2.59
246.272,3.69,-4.7,4.79
246.282,6.66,-3.51,6.89
246.292,9.35,-2.34,8.57
246.303,10.82,-1.03,9.25
246.312,11.08,0.04,8.56
246.322,10.44,0.24,7.25
246.333,8.73,-0.1,6.13
246.343,6.7,-0.74,5.37
246.353,5.21,-1.46,5.17
246.363,4.1,-2.09,5.44
246.373,3.22,-2.96,5.67
246.383,2.45,-4.0,5.72
246.393,2.32,-4.92,5.73
246.403,2.71,-5.51,5.85
246.413,2.41,-5.49,5.73
246.423,1.65,-5.43,4.96
246.433,0.83,-5.84,3.31
246.444,-0.29,-6.51,1.19
246.454,-1.64,-7.2,-1.1
246.464,-2.69,-7.65,-3.32
246.474,-3.12,-7.89,-5.02
246.484,-2.72,-8.06,-5.88
246.494,-1.26,-7.95,-5.98
246.504,0.78,-7.71,-5.61
246.514,2.97,-8.05,-5.16
246.524,4.61,-8.71,-4.45
246.534,5.27,-8.99,-3.58
246.544,5.37,-8.79,-3.0
246.554,5.65,-7.73,-2.4
246.564,5.72,-5.34,-0.75
246.574,5.75,-2.3,2.69
246.585,6.65,0.33,7.17
246.595,8.42,2.38,11.97
246.605,9.25,4.08,14.84
246.615,8.83,5.2,14.33
246.625,7.06,5.59,10.96
246.635,5.09,5.92,6.7
246.645,3.9,6.26,3.41
246.655,3.44,6.4,1.43
246.665,3.48,6.41,0.83
246.675,3.73,6.2,1.36
246.685,3.7,5.85,2.5
246.695,3.22,5.5,3.66
246.705,2.04,5.07,4.74
246.715,0.33,4.58,5.64
246.726,-1.12,3.98,6.23
246.736,-2.19,3.73,6.56
246.746,-2.89,3.91,6.4
246.756,-3.36,4.27,5.66
246.766,-3.58,4.8,4.61
246.776,-3.56,5.5,3.62
246.786,-3.3,6.08,2.78
246.796,-2.98,6.41,2.17
246.806,-3.41,6.47,1.8
246.816,-4.34,6.19,1.66
246.826,-5.12,5.68,1.66
246.837,-5.56,4.97,1.99
246.847,-5.69,4.14,2.8
246.857,-5.6,3.25,3.6
246.867,-5.52,2.41,4.03
246.877,-5.48,1.75,3.92
246.887,-5.44,1.07,3.4
246.897,-5.42,0.43,2.83
246.907,-5.41,-0.24,2.28
246.917,-5.49,-0.8,1.96
246.927,-6.03,-1.3,1.87
246.937,-6.26,-2.01,1.86
246.947,-5.99,-2.54,2.08
246.957,-5.31,-2.66,2.28
246.968,-4.41,-2.67,2.51
246.978,-3.51,-2.54,2.55
246.988,-2.6,-2.3,2.48
246.998,-1.55,-1.98,2.55
247.008,-0.33,-1.69,2.98
247.018,1.04,-1.62,3.67
247.028,2.11,-1.83,4.33
247.038,2.85,-2.24,4.7
247.048,3.06,-2.52,5.11
247.058,3.28,-2.79,5.52
247.068,3.65,-2.66,6.07
247.078,4.34,-1.96,6.5
247.088,5.17,-1.04,6.7
247.099,5.69,-0.07,6.55
247.109,6.05,0.8,6.17
247.119,5.97,1.47,5.32
247.129,5.37,2.02,4.32
247.139,4.58,2.58,3.48
247.149,3.85,3.24,3.19
247.159,3.5,3.93,3.71
247.169,3.37,4.55,4.57
247.179,3.22,4.91,4.89
247.189,2.81,5.04,4.73
247.199,1.92,4.92,4.23
247.209,0.59,4.67,3.32
247.219,-0.72,4.42,2.49
247.23,-1.71,4.34,1.92
247.24,-2.32,4.26,1.61
247.25,-2.61,4.2,1.57
247.26,-2.56,4.25,1.58
247.27,-2.45,4.17,1.45
247.28,-2.37,3.96,1.11
247.29,-2.22,3.87,0.76
247.3,-1.97,3.94,0.44
247.31,-1.89,3.88,0.42
247.32,-2.06,3.7,0.57
247.33,-2.42,3.4,0.69
247.34,-2.64,3.08,0.71
247.35,-2.8,2.89,0.73
247.361,-2.84,2.75,0.75
247.371,-2.82,2.72,1.05
247.381,-2.7,2.72,1.82
247.391,-2.48,2.72,2.86
247.401,-2.34,2.81,3.8
247.411,-2.36,2.94,4.42
247.421,-2.45,3.25,4.56
247.431,-2.64,3.42,4.27
247.441,-2.89,3.25,3.85
247.451,-3.17,2.94,3.61
247.461,-3.36,2.59,3.53
247.471,-3.63,2.31,3.58
247.481,-3.91,2.08,3.55
247.492,-4.28,1.98,3.53
247.502,-4.49,1.88,3.46
247.512,-4.59,1.8,3.39
247.522,-4.48,1.84,3.29
247.532,-4.3,2.0,3.12
247.542,-4.12,2.18,2.87
247.552,-4.06,2.37,2.43
247.562,-4.14,2.51,1.75
247.572,-4.54,2.52,0.97
247.582,-5.0,2.48,0.35
247.592,-5.23,2.43,0.08
247.602,-5.62,2.47,0.05
247.613,-6.11,2.33,0.35
247.623,-6.1,2.04,1.15
247.633,-5.86,1.97,2.4
247.643,-5.84,1.67,3.52
247.653,-5.74,1.03,4.5
247.663,-5.34,0.62,5.3
247.673,-4.7,0.39,5.21
247.683,-4.7,-0.0,4.25
247.693,-4.9,-0.6,3.13
247.703,-4.78,-1.01,2.39
247.713,-4.28,-1.11,2.14
247.723,-3.53,-1.23,2.7
247.733,-2.25,-1.56,3.71
247.744,-0.93,-1.91,4.87
247.754,-0.18,-2.36,6.23
247.764,0.78,-2.76,7.2
247.774,1.63,-2.89,7.45
247.784,2.14,-2.84,6.53
247.794,2.06,-2.7,4.72
247.804,1.54,-2.57,2.86
247.814,1.18,-2.26,1.27
247.824,1.4,-1.79,0.82
247.834,2.44,-1.45,1.49
247.844,3.5,-1.16,2.52
247.855,3.88,-1.18,2.63
247.864,3.7,-1.25,1.62
247.875,3.23,-1.27,0.41
247.885,2.73,-1.27,-0.57
247.895,2.12,-0.99,-1.2
247.905,1.91,-0.42,-1.57
247.915,2.14,0.33,-1.39
247.925,2.57,1.14,-0.74
247.935,2.96,1.96,0.02
247.945,3.14,2.7,0.72
247.955,3.2,3.42,1.72
247.965,3.44,4.08,2.89
247.975,4.21,4.84,4.08
247.986,5.37,5.61,5.0
247.995,6.36,6.17,5.26
248.006,6.91,6.38,4.75
248.016,6.68,6.21,3.67
248.026,5.98,5.73,2.13
248.036,4.96,5.08,0.55
248.046,3.73,4.2,-0.86
248.056,2.33,3.28,-2.15
248.066,0.87,2.49,-3.33
248.076,-0.34,1.85,-4.15
248.086,-1.02,1.56,-4.43
248.096,-1.25,1.55,-4.31
248.106,-1.07,1.63,-3.91
248.117,-0.96,1.56,-3.22
248.127,-1.3,1.2,-2.2
248.137,-2.12,0.44,-0.62
248.147,-2.66,-0.07,1.21
248.157,-2.43,-0.21,2.51
248.167,-1.59,-0.03,2.98
248.177,-0.62,0.41,2.69
248.187,0.07,0.87,1.67
248.197,0.24,1.26,-0.15
248.207,-0.11,1.57,-2.41
248.217,-0.55,1.8,-4.44
248.227,-1.23,1.98,-5.9
248.237,-2.05,2.02,-6.08
248.248,-2.94,1.82,-5.05
