timestamp,ax,ay,az
70.608,-2.51,4.44,-8.27
70.618,-2.51,6.29,-9.06
70.628,-1.88,7.63,-9.03
70.638,-0.64,8.28,-8.4
70.648,0.97,8.58,-7.15
70.659,2.31,8.73,-5.56
70.668,2.99,8.52,-4.09
70.678,3.33,8.16,-2.62
70.688,4.08,7.88,-0.9
70.699,4.99,7.49,0.8
70.709,5.66,6.81,2.25
70.719,5.66,5.92,3.32
70.729,4.91,4.93,3.91
70.739,4.22,4.12,4.02
70.749,3.8,3.29,3.93
70.759,3.52,2.4,3.89
70.769,3.65,1.77,3.66
70.779,3.6,1.29,3.37
70.789,3.19,0.98,3.59
70.799,2.79,0.9,3.82
70.809,2.57,0.74,3.86
70.819,2.5,0.21,4.24
70.829,2.27,-0.33,4.9
70.84,1.65,-0.78,5.64
70.85,0.85,-1.22,5.78
70.86,0.18,-1.52,5.26
70.87,-0.24,-1.72,4.93
70.88,-0.46,-1.97,4.75
70.89,-0.7,-2.21,4.63
70.9,-1.14,-2.39,4.53
70.91,-1.39,-2.48,4.35
70.92,-1.28,-2.47,4.11
70.93,-0.92,-2.3,3.99
70.941,-0.72,-2.17,3.82
70.95,-0.94,-2.43,3.34
70.961,-1.02,-2.93,2.79
70.97,-0.82,-3.34,2.32
70.981,-0.54,-3.65,1.99
70.991,-0.22,-3.89,1.69
71.001,0.16,-4.03,1.28
71.011,0.73,-4.11,0.84
71.021,1.56,-4.37,0.54
71.031,2.55,-4.62,0.43
71.041,3.32,-4.84,0.42
71.051,3.81,-5.2,0.48
71.061,3.87,-5.58,0.59
71.071,3.54,-5.89,0.74
71.082,3.0,-6.31,0.87
71.092,2.43,-6.79,0.91
71.102,1.96,-7.22,0.97
71.112,1.48,-7.49,1.1
71.122,0.91,-7.58,1.28
71.132,0.27,-7.39,1.59
71.142,-0.36,-6.95,2.01
71.152,-0.96,-6.37,2.52
71.162,-1.39,-5.68,3.02
71.172,-1.52,-4.85,3.4
71.182,-1.11,-3.98,3.69
71.192,-0.2,-2.99,3.98
71.202,0.8,-1.99,4.37
71.213,1.07,-1.39,4.66
71.223,0.79,-1.08,4.42
71.233,0.68,-0.39,3.44
71.243,0.87,0.6,2.28
71.253,1.27,1.5,1.45
71.263,3.01,2.42,1.66
71.273,2.96,3.48,-0.02
71.283,1.16,4.91,-2.03
71.293,2.28,6.5,-1.49
71.303,3.2,7.93,-1.46
71.313,3.81,9.43,-0.6
71.323,4.41,10.09,-0.29
71.333,4.85,9.74,-1.29
71.343,5.11,9.06,-1.12
71.353,4.57,8.59,-1.68
71.364,3.5,8.23,-2.09
71.374,2.5,7.72,-2.62
71.384,1.72,7.2,-2.68
71.394,1.51,6.59,-1.97
71.404,1.72,5.73,-0.9
71.414,1.99,4.71,0.55
71.424,2.26,3.65,1.64
71.434,1.73,2.68,2.52
71.444,0.7,1.8,3.08
71.454,-0.33,0.91,3.18
71.465,-1.23,0.15,3.1
71.475,-2.05,-0.45,2.96
71.485,-2.61,-0.84,3.0
71.495,-2.82,-1.07,3.17
71.505,-2.63,-1.11,3.49
71.515,-1.99,-0.96,3.65
71.525,-1.26,-0.76,3.63
71.535,-0.6,-0.56,3.49
71.545,-0.01,-0.32,3.28
71.555,0.37,-0.1,3.22
71.565,0.57,0.12,3.37
71.575,0.86,0.39,3.47
71.586,1.23,0.7,3.38
71.595,1.68,1.02,3.13
71.606,2.15,1.06,2.92
71.616,2.47,0.7,2.78
71.626,2.31,0.07,2.57
71.636,1.53,-0.71,2.24
71.646,0.44,-1.44,1.92
71.656,-0.91,-2.15,1.64
71.666,-2.41,-2.93,1.43
71.676,-3.75,-3.52,1.59
71.686,-4.71,-3.82,2.13
71.696,-5.25,-3.89,2.69
71.706,-5.64,-3.5,3.3
71.716,-6.25,-2.38,4.48
71.727,-6.39,-1.13,5.32
71.736,-5.67,0.15,5.62
71.747,-4.14,1.47,5.18
71.757,-2.33,3.01,4.1
71.767,-0.87,4.96,3.1
71.777,0.51,7.15,2.44
71.787,2.04,9.45,2.01
71.797,3.71,11.62,1.72
71.807,5.59,13.37,1.39
71.817,6.67,14.16,1.03
71.827,6.23,13.68,0.55
71.837,4.97,11.99,-0.44
71.847,3.38,9.7,-1.59
71.857,2.42,7.64,-2.4
71.868,2.34,6.02,-2.57
71.878,2.36,4.79,-2.03
71.888,1.95,3.69,-1.15
71.898,1.27,2.51,-0.48
71.908,0.65,1.42,-0.09
71.918,0.38,0.45,0.16
71.928,0.27,-0.3,0.31
71.938,-0.06,-1.02,0.36
71.948,-0.29,-1.59,0.37
71.958,-0.37,-2.11,0.25
71.968,-0.19,-2.48,0.13
71.978,0.35,-2.66,0.01
71.989,0.91,-2.79,-0.05
71.999,1.41,-2.89,-0.03
72.009,1.93,-2.87,0.16
72.019,2.29,-2.85,0.49
72.029,2.53,-2.84,0.79
72.039,2.85,-2.79,1.03
72.049,3.23,-2.71,1.27
72.059,3.55,-2.57,1.49
72.069,3.71,-2.39,1.59
72.079,3.66,-2.35,1.57
72.09,3.38,-2.48,1.53
72.099,3.01,-2.71,1.34
72.11,2.6,-2.95,1.19
72.119,2.32,-3.3,1.26
72.13,2.37,-3.78,1.64
72.14,2.34,-4.04,2.12
72.15,2.0,-4.1,2.54
72.16,1.6,-4.05,2.75
72.17,1.22,-3.95,2.72
72.18,0.77,-3.93,2.53
72.19,0.4,-4.07,2.29
72.2,0.06,-4.18,2.12
72.21,-0.15,-4.14,2.15
72.22,-0.13,-3.93,2.3
72.23,0.13,-3.49,2.51
72.241,0.64,-2.97,2.58
72.251,1.14,-2.57,2.52
72.261,1.42,-2.4,2.36
72.271,1.34,-2.39,2.26
72.281,1.18,-2.39,2.15
72.291,0.82,-2.49,2.05
72.301,0.3,-2.59,1.97
72.311,-0.2,-2.64,1.87
72.321,-0.81,-2.73,1.71
72.331,-1.49,-2.91,1.54
72.341,-1.98,-3.07,1.48
72.351,-2.36,-3.16,1.51
72.361,-2.64,-3.15,1.51
72.372,-2.92,-3.24,1.47
72.381,-3.29,-3.36,1.35
72.392,-3.65,-3.31,1.06
72.402,-3.66,-2.81,0.66
72.412,-3.11,-1.74,0.05
72.422,-2.13,-0.43,-0.82
72.432,-0.86,0.82,-1.76
72.442,0.98,2.11,-2.1
72.452,3.12,3.33,-1.86
72.462,5.01,4.17,-2.64
72.472,6.46,4.67,-2.92
72.482,7.47,5.01,-3.08
72.493,8.21,5.15,-3.46
72.502,8.76,4.99,-3.2
72.513,7.34,4.52,-4.04
72.523,5.67,3.54,-5.04
72.533,4.88,1.96,-5.26
72.543,3.68,0.25,-5.17
72.553,2.48,-0.89,-5.46
72.563,1.63,-1.42,-5.86
72.573,1.3,-1.58,-6.45
72.583,1.08,-1.3,-7.24
72.593,0.84,-0.62,-7.77
72.603,1.19,-0.01,-7.89
72.613,1.84,0.2,-7.77
72.623,2.2,-0.04,-7.45
72.634,2.25,-0.38,-7.09
72.644,1.98,-0.73,-6.46
72.654,1.42,-1.19,-5.29
72.664,0.86,-1.74,-4.26
72.674,-0.21,-2.11,-3.23
72.684,-0.84,-1.91,-2.16
72.694,-0.26,-1.08,-1.49
72.704,0.78,0.04,-1.01
72.714,1.4,0.87,-0.25
72.724,1.8,1.47,0.63
72.734,2.17,1.94,1.28
72.744,2.37,2.34,1.89
72.755,2.23,2.47,2.37
72.764,1.49,2.22,2.98
72.775,0.4,1.72,3.49
72.785,-0.52,1.18,2.67
72.795,-1.47,0.6,2.05
72.805,-2.5,0.19,2.23
72.815,-3.21,0.1,2.44
72.825,-3.46,0.31,2.64
72.835,-3.72,0.58,3.0
72.845,-3.99,0.82,3.25
72.855,-3.92,1.33,3.19
72.865,-3.64,2.17,2.94
72.875,-3.28,3.19,2.39
72.885,-2.94,4.32,1.36
72.896,-2.66,5.59,0.06
72.906,-1.81,6.86,-1.23
72.916,-0.33,8.01,-2.53
72.926,0.99,8.58,-3.69
72.936,1.82,8.49,-4.34
72.946,2.36,7.87,-4.53
72.956,2.66,6.7,-4.58
72.966,3.09,5.48,-4.66
72.976,2.85,4.24,-4.56
72.986,2.36,3.0,-4.29
72.996,2.1,1.95,-3.89
73.007,1.69,0.99,-3.46
73.016,1.1,0.01,-3.05
73.027,1.01,-0.95,-2.52
73.037,1.56,-1.67,-1.85
73.047,2.18,-2.15,-1.09
73.057,2.41,-2.45,-0.51
73.067,2.34,-2.64,-0.22
73.077,2.15,-2.81,-0.22
73.087,1.81,-2.91,-0.44
73.097,1.62,-2.87,-0.65
73.107,1.63,-2.68,-0.9
73.117,1.45,-2.37,-1.19
73.127,0.77,-2.29,-1.52
73.138,-0.23,-2.47,-1.77
73.147,-1.31,-2.86,-1.73
73.158,-2.19,-3.15,-1.19
73.168,-2.59,-3.03,-0.36
73.178,-2.36,-2.48,0.3
73.188,-1.79,-1.78,0.61
73.198,-1.09,-1.21,0.74
73.208,-0.47,-0.71,0.75
73.218,-0.05,-0.15,0.78
73.228,0.08,0.39,0.73
73.238,-0.16,0.61,0.41
73.248,-0.31,0.5,0.15
73.258,-0.37,0.27,0.16
73.268,-0.52,0.0,0.11
73.279,-0.73,-0.26,-0.15
73.289,-1.05,-0.7,-0.51
73.299,-1.33,-1.19,-1.02
73.309,-1.74,-1.57,-1.44
73.319,-2.36,-1.75,-2.17
73.329,-2.69,-1.92,-2.95
73.339,-2.41,-2.23,-2.98
73.349,-1.66,-2.43,-2.42
73.359,-1.16,-2.26,-1.83
73.369,-1.18,-2.01,-1.12
73.379,-1.53,-1.91,-0.45
73.389,-1.79,-2.11,-0.02
73.4,-1.85,-2.35,0.48
73.41,-2.15,-2.37,0.83
73.42,-2.78,-2.28,0.8
73.43,-3.39,-2.26,0.74
73.44,-3.77,-2.31,1.14
73.45,-3.81,-1.87,1.98
73.46,-3.85,-0.92,2.97
73.47,-4.13,0.17,3.8
73.48,-4.68,1.35,4.16
73.49,-4.99,2.56,4.26
73.5,-3.94,3.7,4.19
73.51,-1.24,4.87,3.98
73.52,1.92,6.01,4.06
73.53,4.17,7.28,4.49
73.541,5.26,8.47,4.74
73.551,5.55,8.37,4.82
73.561,6.08,7.08,4.9
73.571,6.2,5.35,5.21
73.581,5.76,3.72,5.22
73.591,4.56,2.25,4.31
73.601,2.93,1.53,3.23
73.611,1.96,1.63,2.04
73.621,1.94,1.72,0.4
73.631,1.87,1.56,-0.81
73.641,1.76,1.64,-1.55
73.652,1.78,1.59,-2.17
73.662,1.33,1.33,-2.02
73.672,0.98,0.87,-0.98
73.682,1.17,-0.01,0.37
73.692,1.4,-0.94,1.87
73.702,1.4,-1.85,3.37
73.712,0.8,-2.95,4.71
73.722,1.08,-4.84,9.65
73.732,-0.62,-5.22,7.03
73.742,-0.57,-4.17,2.7
73.752,-0.16,-3.23,3.1
73.763,-0.44,-2.09,3.22
73.772,-0.56,-0.71,1.57
73.783,-0.75,0.29,0.65
73.793,-0.23,1.13,0.13
73.803,-0.09,2.15,-0.47
73.813,0.27,2.8,-0.63
73.823,1.58,2.97,-0.67
73.833,2.12,3.28,0.14
73.843,2.87,3.61,1.2
73.853,3.42,3.7,2.16
73.863,3.46,3.87,2.54
73.873,2.85,3.67,2.35
73.883,2.07,2.9,1.63
73.893,1.32,1.74,0.97
73.903,0.54,0.65,0.15
73.913,0.03,-0.21,-1.26
73.924,-0.14,-0.68,-2.83
73.934,0.38,-0.85,-4.08
73.944,1.59,-0.62,-5.06
73.954,3.33,-0.05,-6.32
73.964,5.38,0.64,-8.0
73.974,7.36,0.97,-9.16
73.984,9.13,0.5,-9.86
73.994,10.58,0.03,-10.45
74.004,11.72,-0.42,-10.64
74.014,12.65,-0.74,-10.85
74.025,13.48,-0.38,-11.9
74.035,14.54,0.72,-12.88
74.045,15.81,1.99,-12.54
74.055,16.7,3.39,-10.6
74.065,17.29,4.91,-8.44
74.075,17.69,6.21,-6.4
74.085,17.31,7.09,-4.12
74.095,16.79,7.42,-2.27
74.105,16.25,7.58,-0.92
74.115,15.53,7.48,0.32
74.125,14.83,6.91,1.48
74.135,14.18,6.33,2.31
74.145,12.92,5.71,3.1
74.155,12.1,4.61,4.1
74.165,12.16,3.2,5.6
74.175,12.92,1.98,8.85
74.186,14.08,1.41,12.86
74.196,14.68,1.72,16.09
74.206,14.54,2.75,18.36
74.216,14.49,3.56,19.42
74.226,14.71,3.82,19.14
74.236,14.17,3.58,16.68
74.246,12.91,3.47,14.33
74.256,12.44,2.98,12.64
74.266,12.71,1.39,12.37
74.276,13.07,-0.92,13.94
74.286,12.55,-2.69,15.87
74.296,11.3,-3.67,17.62
74.307,9.95,-4.19,18.47
74.316,8.66,-4.47,18.53
74.327,7.92,-4.9,18.42
74.337,7.75,-5.44,18.58
74.347,7.58,-5.99,17.6
74.357,7.03,-6.34,15.59
74.367,7.23,-6.66,14.71
74.377,6.46,-6.49,12.46
74.387,6.52,-6.07,11.44
74.397,6.56,-5.73,11.61
74.407,6.04,-5.82,11.7
74.417,5.29,-6.08,11.75
74.427,4.66,-6.28,11.58
74.438,4.28,-6.35,11.46
74.448,3.65,-6.18,10.98
74.458,3.96,-5.98,9.83
74.468,4.54,-5.48,8.57
74.478,3.79,-7.02,6.57
74.488,3.22,-7.77,4.37
74.498,2.68,-7.09,3.71
74.508,2.14,-7.71,4.28
74.518,1.31,-8.62,4.0
74.528,0.22,-9.15,2.59
74.538,-0.0,-8.57,1.97
74.548,0.38,-7.28,2.35
74.558,1.07,-6.45,2.57
74.569,1.06,-6.41,1.23
74.579,0.13,-6.41,-0.57
74.589,-0.12,-5.88,-1.73
74.599,0.01,-5.4,-1.8
74.609,0.48,-5.02,-1.28
74.619,1.22,-4.74,-0.22
74.629,2.1,-4.68,1.19
74.639,3.44,-4.27,2.29
74.649,4.7,-3.4,2.65
74.659,4.93,-2.49,1.89
74.669,4.07,-1.83,0.22
74.679,3.0,-1.65,-1.23
74.69,3.36,-1.79,-1.42
74.699,4.59,-1.91,-0.81
74.71,4.64,-2.25,-0.09
74.72,3.91,-2.96,0.42
74.73,3.28,-3.53,0.76
74.74,2.75,-3.69,1.34
74.75,3.08,-3.61,2.04
74.76,3.35,-4.24,1.14
74.77,5.07,-3.72,-0.22
74.78,6.51,-2.66,-1.31
74.79,7.18,-2.32,-3.88
74.8,7.23,-2.24,-6.43
74.81,6.8,-2.09,-7.26
74.821,6.38,-1.89,-7.13
74.831,6.09,-1.58,-6.17
74.841,5.52,-0.6,-5.09
74.851,4.88,0.73,-4.32
74.861,4.36,1.78,-3.53
74.871,3.79,3.15,-2.79
74.881,3.32,4.78,-2.95
74.891,2.9,6.26,-3.62
74.901,2.13,7.2,-4.48
74.911,1.18,7.34,-4.89
74.921,0.61,7.05,-4.47
74.931,0.47,7.09,-4.02
74.941,0.48,7.5,-4.04
74.952,-0.27,7.26,-4.44
74.962,-0.44,7.33,-4.9
74.972,-0.14,7.32,-4.51
74.982,0.2,6.78,-4.19
74.992,-2.6,6.0,-7.28
75.002,-1.74,5.35,-5.61
75.012,-1.99,4.5,-2.59
75.022,-1.74,4.11,-3.29
75.032,-1.49,3.26,-3.06
75.042,-2.06,3.29,-3.0
75.052,-2.48,3.59,-2.56
75.062,-2.31,3.7,-2.55
75.073,-2.3,3.89,-2.64
75.082,-1.3,3.76,-2.61
75.093,0.27,3.73,-2.43
75.103,1.42,3.95,-3.06
75.113,2.17,3.72,-4.46
75.123,3.3,3.21,-6.02
75.133,4.56,2.48,-7.76
75.143,5.66,0.9,-9.24
75.153,6.31,-0.73,-10.49
75.163,6.63,-2.47,-11.63
75.173,6.7,-4.15,-12.36
75.183,6.69,-5.23,-12.78
75.194,6.93,-6.18,-12.91
75.204,7.42,-6.89,-12.49
75.214,7.62,-7.12,-12.05
75.224,7.33,-6.82,-11.7
75.234,6.51,-6.41,-11.14
75.244,5.64,-5.8,-10.96
75.254,5.15,-4.81,-11.2
75.264,5.56,-3.89,-11.05
75.274,7.26,-3.74,-9.79
75.284,9.02,-3.73,-7.47
75.294,10.42,-3.18,-5.93
75.304,11.47,-2.68,-4.98
75.314,10.97,-2.69,-3.95
75.324,9.61,-2.9,-3.21
75.335,8.92,-3.5,-2.89
75.345,8.23,-4.1,-2.1
75.355,7.44,-5.16,-1.3
75.365,7.08,-6.42,-0.03
75.375,6.6,-7.22,1.24
75.385,6.36,-7.65,2.48
75.395,6.85,-7.98,3.54
75.405,7.47,-7.82,3.57
75.415,8.56,-7.12,2.37
75.425,9.28,-6.86,1.48
75.435,9.88,-6.97,1.4
75.445,10.81,-7.28,2.55
75.456,11.7,-7.61,3.38
75.465,11.45,-7.77,3.67
75.476,10.3,-8.43,3.52
75.486,8.87,-9.38,3.47
75.496,7.67,-10.4,3.84
75.506,7.71,-10.99,4.68
75.516,8.75,-10.23,5.63
75.526,8.65,-9.1,7.44
75.536,8.97,-9.19,9.32
75.546,9.27,-9.55,10.38
75.556,9.23,-9.17,10.69
75.566,9.25,-8.5,10.52
75.576,8.83,-8.15,9.9
75.586,8.62,-7.7,9.16
75.597,8.77,-6.75,8.48
