timestamp,ax,ay,az
394.675,11.44,-4.68,13.6
394.685,10.49,-3.78,13.32
394.695,8.53,-2.74,11.9
394.706,6.76,-1.89,10.34
394.716,6.78,-0.97,9.61
394.727,8.42,-0.64,9.07
394.736,9.8,0.02,7.82
394.746,10.96,1.4,6.89
394.756,11.9,2.47,6.08
394.766,12.33,3.65,5.06
394.776,12.87,5.28,4.44
394.787,13.73,6.81,4.0
394.796,14.34,8.02,3.38
394.806,13.9,8.9,2.74
394.816,12.5,9.23,1.87
394.826,10.63,9.24,0.74
394.837,8.85,9.18,-0.04
394.847,7.26,9.22,-0.14
394.857,6.04,9.4,0.25
394.867,5.03,9.46,0.84
394.877,3.81,9.31,1.3
394.887,2.52,9.04,1.69
394.897,1.92,8.76,2.47
394.907,1.48,8.21,3.13
394.917,0.91,7.65,3.15
394.927,0.36,7.17,2.88
394.937,0.36,6.61,2.41
394.947,0.83,6.25,2.0
394.958,1.01,5.49,1.64
394.968,0.39,4.53,1.1
394.978,-0.6,3.67,0.8
394.988,-1.69,2.59,0.89
394.998,-2.81,1.11,1.29
395.008,-4.12,-0.38,1.78
395.018,-5.52,-1.54,2.09
395.028,-6.5,-2.54,2.32
395.038,-7.45,-3.64,2.74
395.048,-8.54,-4.88,3.26
395.058,-9.49,-6.23,3.61
395.068,-10.17,-7.49,3.5
395.078,-10.54,-8.48,3.01
395.089,-10.72,-9.2,2.37
395.099,-10.53,-9.73,1.75
395.109,-10.12,-10.03,1.29
395.119,-9.67,-10.18,1.13
395.129,-9.38,-10.23,1.25
395.139,-9.13,-10.18,1.53
395.149,-8.73,-9.91,1.87
395.159,-8.0,-9.49,2.1
395.169,-6.78,-8.97,2.4
395.179,-5.56,-8.34,2.59
395.189,-4.59,-7.84,2.42
395.199,-3.78,-7.59,1.87
395.209,-3.26,-7.56,1.06
395.219,-3.32,-7.61,0.14
395.23,-3.55,-7.6,-0.44
395.24,-2.75,-7.25,-0.66
395.25,-0.51,-6.38,-0.44
395.26,2.33,-4.96,-0.0
395.27,5.22,-3.51,0.42
395.28,7.77,-2.55,0.67
395.29,9.33,-1.84,0.78
395.302,9.6,-1.6,1.46
395.31,9.3,-1.83,3.0
395.32,8.9,-1.77,4.56
395.33,8.46,-1.53,5.87
395.341,8.55,-1.43,6.73
395.351,9.27,-1.4,6.48
395.361,10.06,-1.53,5.15
395.371,10.22,-1.51,3.37
395.381,9.99,-1.65,1.43
395.391,9.79,-1.97,-0.3
395.401,9.51,-2.25,-1.51
395.411,9.22,-2.37,-2.08
395.421,8.61,-2.41,-2.07
395.431,7.89,-2.5,-1.82
395.441,7.52,-2.49,-1.57
395.451,7.27,-2.22,-1.4
395.461,7.02,-1.78,-1.41
395.471,7.07,-1.15,-1.57
395.481,7.46,-0.09,-1.75
395.492,8.07,1.01,-2.07
395.502,8.95,2.16,-2.79
395.512,10.08,3.34,-3.76
395.522,11.3,4.02,-4.3
395.532,12.28,4.34,-4.48
395.542,12.51,4.75,-4.12
395.552,12.34,5.55,-3.17
395.562,12.55,6.62,-2.06
395.573,13.67,7.9,-0.81
395.583,14.99,8.98,0.28
395.593,15.46,9.52,1.11
395.603,14.7,9.41,1.76
395.613,13.14,8.47,1.98
395.623,11.07,7.0,1.55
395.633,8.84,5.67,1.04
395.643,6.71,4.42,0.77
395.653,4.86,3.1,0.48
395.663,3.32,1.75,0.19
395.673,1.84,0.26,0.03
395.683,0.27,-0.96,0.16
395.693,-1.13,-1.79,0.47
395.703,-2.29,-2.24,0.73
395.713,-3.07,-2.53,0.98
395.723,-3.5,-2.8,1.28
395.733,-3.88,-3.11,1.6
395.744,-4.6,-3.42,2.07
395.754,-5.12,-3.22,2.82
395.764,-5.3,-2.58,3.93
395.774,-5.43,-2.57,5.04
395.784,-5.26,-2.87,6.29
395.794,-4.87,-3.16,7.52
395.804,-4.85,-3.18,8.4
395.814,-5.2,-3.01,8.69
395.824,-5.46,-2.73,8.31
395.834,-5.49,-2.59,7.49
395.844,-5.5,-2.51,6.74
395.854,-5.61,-2.17,6.17
395.864,-5.74,-1.83,5.5
395.875,-5.88,-1.68,4.68
395.885,-5.97,-1.6,3.94
395.895,-5.95,-1.67,3.79
395.905,-6.09,-1.78,3.78
395.915,-6.31,-1.99,3.69
395.925,-6.4,-2.27,3.76
395.935,-6.41,-2.63,3.96
395.945,-6.51,-2.96,4.06
395.955,-6.64,-3.26,4.33
395.965,-6.67,-3.53,4.89
395.975,-6.48,-3.6,5.61
395.985,-6.09,-3.57,6.4
395.996,-5.73,-3.4,7.09
396.006,-5.47,-3.1,7.55
396.016,-5.23,-2.85,7.74
396.026,-5.01,-2.59,7.67
396.036,-4.62,-2.36,7.53
396.046,-3.83,-2.12,7.38
396.056,-3.14,-1.89,7.23
396.066,-2.24,-1.59,7.15
396.076,-1.7,-1.39,7.22
396.086,-1.68,-1.57,6.85
396.096,-1.66,-1.95,6.22
396.106,-1.26,-2.19,5.9
396.116,-0.54,-1.8,5.71
396.127,-0.16,-1.17,5.17
396.137,0.02,-0.44,3.76
396.147,-0.17,0.37,1.71
396.157,-0.74,1.1,-0.52
396.167,-1.7,1.71,-2.29
396.177,-2.82,1.55,-3.5
396.187,-2.8,1.4,-4.11
396.197,-0.79,3.61,-4.32
396.207,-0.1,3.48,-4.72
396.217,-0.71,1.28,-4.87
396.227,-1.07,0.3,-4.46
396.237,-0.67,0.05,-3.63
396.247,-0.03,-0.19,-2.47
396.258,0.39,-0.58,-1.22
396.268,0.58,-1.05,-0.29
396.278,0.95,-1.09,0.33
396.288,1.81,-1.0,1.22
396.298,3.01,-1.18,2.51
396.308,4.04,-1.95,3.9
396.318,5.07,-2.9,5.47
396.328,5.93,-3.18,6.91
396.338,6.22,-2.89,7.65
396.348,6.72,-2.14,7.38
396.358,7.34,-1.4,6.07
396.368,7.54,-0.48,3.87
396.379,7.36,0.62,1.78
396.389,7.57,1.04,0.53
396.399,7.96,1.34,0.02
396.409,8.19,1.76,-0.32
396.419,7.97,1.83,-0.49
396.429,7.58,1.61,-0.32
396.439,7.17,1.31,0.22
396.449,6.42,1.23,0.74
396.459,5.7,1.18,0.77
396.469,4.91,1.05,0.39
396.479,3.9,0.78,-0.03
396.489,2.83,0.54,-0.19
396.499,1.91,0.54,-0.21
396.509,1.4,0.57,-0.05
396.52,1.12,0.5,0.28
396.53,1.1,0.63,0.61
396.54,1.09,0.88,0.85
396.55,0.91,0.85,0.86
396.56,0.59,0.84,0.62
396.57,0.15,0.93,0.28
396.58,-0.26,1.02,-0.03
396.59,-0.36,1.27,-0.08
396.6,-0.31,1.72,0.13
396.61,0.03,2.18,0.67
396.62,0.75,2.38,1.49
396.63,1.38,2.4,2.25
396.641,1.99,2.21,2.75
396.651,2.21,1.92,2.95
396.661,2.12,1.75,2.83
396.671,1.82,1.61,2.66
396.681,1.39,1.31,2.4
396.691,0.82,0.99,1.93
396.701,0.49,0.76,1.48
396.711,0.4,0.71,1.03
396.721,0.55,0.75,0.54
396.731,0.52,0.65,0.06
396.741,0.19,0.55,-0.46
396.751,0.11,0.56,-0.99
396.761,0.3,0.64,-1.33
396.772,0.57,1.01,-1.7
396.782,0.77,1.49,-2.1
396.792,0.98,1.92,-2.26
396.802,1.98,2.61,-2.28
396.812,3.77,3.36,-1.84
396.822,6.13,3.87,-0.76
396.832,8.53,4.22,0.46
396.842,9.8,4.43,0.93
396.852,8.86,3.77,0.42
396.862,6.4,1.55,-0.21
396.872,4.87,-0.06,-1.19
396.882,2.19,-1.64,-2.54
396.892,0.01,-3.7,-4.33
396.903,-3.59,-6.53,-6.38
396.913,-9.46,-8.64,-7.99
396.923,-14.39,-9.77,-8.85
396.933,-15.59,-10.97,-8.4
396.943,-13.98,-11.9,-6.35
396.953,-11.99,-12.06,-3.34
396.963,-10.88,-12.1,-0.72
396.973,-10.78,-12.16,1.31
396.983,-11.06,-12.23,2.79
396.993,-10.98,-12.11,3.72
397.003,-10.4,-11.57,4.08
397.013,-8.06,-10.56,3.7
397.023,-4.08,-8.76,3.02
397.034,-0.14,-6.13,2.2
397.044,3.43,-3.18,1.14
397.054,5.84,-0.63,-0.1
397.064,5.66,0.12,-1.12
397.074,4.6,-0.94,-1.11
397.084,3.3,-2.17,2.28
397.094,2.96,-1.49,2.79
397.104,5.63,-0.32,4.56
397.114,8.42,1.12,7.34
397.124,11.61,1.95,8.69
397.135,13.81,2.69,9.34
397.144,13.48,3.05,8.73
397.155,10.76,2.61,6.58
397.165,7.19,1.71,3.83
397.175,4.11,0.96,1.28
397.185,1.93,0.49,-1.0
397.195,0.65,0.34,-2.72
397.205,-0.02,0.33,-3.75
397.215,-0.27,0.43,-4.12
397.225,-0.23,0.57,-4.09
397.235,-0.07,0.62,-3.57
397.245,0.0,0.58,-2.45
397.255,0.15,0.48,-1.33
397.266,0.41,0.37,-0.36
397.275,0.58,0.39,0.44
397.286,0.9,0.44,0.6
397.296,1.31,0.29,0.13
397.306,1.79,0.2,-0.66
397.316,2.3,0.3,-1.56
397.326,2.49,0.34,-2.3
397.336,2.59,0.06,-2.87
397.346,2.65,-0.44,-3.21
397.356,2.68,-1.01,-3.39
397.366,2.64,-1.61,-3.51
397.376,2.59,-2.11,-3.53
397.386,2.61,-2.34,-3.49
397.396,2.74,-2.29,-3.58
397.406,3.17,-2.08,-3.95
397.417,3.89,-1.77,-4.35
397.427,4.82,-1.4,-4.61
397.437,5.86,-1.06,-4.71
397.447,6.94,-0.96,-4.79
397.457,7.78,-1.22,-4.7
397.467,8.01,-1.67,-4.19
397.477,8.01,-2.13,-3.43
397.487,8.16,-2.68,-2.63
397.497,8.05,-3.02,-1.64
397.507,7.74,-2.96,-0.65
397.517,7.43,-2.8,0.43
397.527,6.97,-2.7,1.36
397.538,6.15,-2.6,1.98
397.548,5.05,-2.59,2.31
397.558,3.95,-2.56,2.39
397.568,2.9,-2.45,2.4
397.578,2.03,-2.3,2.32
397.588,1.13,-2.13,2.2
397.598,0.16,-1.73,2.01
397.608,-0.88,-1.13,1.92
397.618,-1.76,-0.67,1.86
397.628,-2.65,-0.47,2.03
397.638,-3.28,0.09,2.62
397.648,-3.99,0.3,3.52
397.658,-4.44,0.84,4.97
397.669,-4.45,1.67,6.55
397.679,-4.41,1.9,7.76
397.689,-4.61,1.94,8.57
397.699,-5.1,1.98,8.81
397.709,-5.7,2.25,8.65
397.719,-6.2,2.55,8.52
397.729,-6.5,2.67,8.36
397.739,-6.64,2.58,8.49
397.749,-6.82,2.34,8.8
397.759,-7.03,1.84,8.75
397.769,-7.85,1.26,8.64
397.779,-8.64,0.65,7.94
397.789,-9.43,-0.16,7.12
397.8,-10.04,-0.29,6.83
397.81,-10.04,0.04,6.77
397.82,-9.22,0.62,7.0
397.83,-7.86,1.37,7.8
397.84,-6.66,2.07,8.94
397.85,-5.78,2.87,9.54
397.86,-5.31,3.85,9.61
397.87,-5.11,5.27,9.3
397.88,-4.28,6.99,9.44
397.89,-2.32,8.72,10.3
397.9,0.73,10.38,11.67
397.91,4.31,11.71,13.05
397.92,7.02,12.0,12.89
397.93,8.64,11.67,11.1
397.941,8.92,10.87,8.71
397.951,8.2,9.87,6.38
397.961,7.27,9.26,4.4
397.971,6.58,8.53,3.27
397.981,6.08,7.43,2.98
397.991,5.56,6.04,2.58
398.001,5.03,4.54,1.96
398.011,4.48,3.26,1.24
398.021,3.77,1.93,0.68
398.031,3.17,0.62,0.34
398.041,2.56,-0.63,-0.07
398.051,1.67,-1.57,-0.43
398.062,0.9,-2.03,-0.88
398.072,0.51,-2.17,-1.44
398.082,0.25,-2.53,-1.72
398.092,0.17,-2.25,-1.99
398.102,0.66,-2.29,-2.89
398.112,1.4,-2.42,-3.77
398.122,1.74,-2.21,-4.31
398.132,1.98,-1.88,-4.47
398.142,2.45,-1.79,-4.4
398.152,2.55,-2.07,-4.39
398.162,2.77,-2.47,-3.94
398.172,2.97,-2.79,-2.87
398.182,3.21,-3.46,0.09
398.193,4.33,-3.47,-1.47
398.203,4.72,-3.6,-1.91
398.213,4.48,-3.76,-2.03
398.223,4.72,-4.34,-2.39
398.233,4.22,-5.12,-2.7
398.243,4.06,-5.55,-2.86
398.253,5.08,-4.71,-3.26
398.263,5.38,-4.36,-3.97
398.273,4.61,-5.74,-4.77
398.283,3.33,-6.99,-5.54
398.293,1.92,-7.6,-6.02
398.304,0.94,-8.05,-6.25
398.313,0.83,-8.41,-6.24
398.324,1.55,-8.59,-5.87
398.334,3.07,-8.55,-5.4
398.344,5.2,-8.06,-5.12
398.354,7.41,-7.1,-4.58
398.364,9.16,-6.2,-3.83
398.374,10.27,-5.76,-3.3
398.384,10.77,-5.49,-2.9
398.394,10.97,-5.07,-2.48
398.404,10.97,-4.42,-2.09
398.414,11.79,-4.09,-0.37
398.424,9.84,-3.58,-1.27
398.434,8.56,-3.58,-1.66
398.444,7.78,-3.64,-1.45
398.455,7.0,-3.97,-1.51
398.465,6.51,-3.89,-1.19
398.475,6.02,-3.76,-1.07
398.485,5.63,-3.65,-0.98
398.495,5.42,-3.51,-0.88
398.505,5.32,-3.16,-0.89
398.515,5.27,-2.59,-0.81
398.525,4.98,-1.93,-0.53
398.535,4.51,-1.41,-0.57
398.545,4.16,-1.0,-0.9
398.555,4.03,-0.56,-1.16
398.566,4.07,-0.1,-1.12
398.576,4.47,0.53,-0.79
398.586,5.07,1.43,-0.2
398.596,6.12,2.5,0.4
398.606,7.35,3.77,0.85
398.616,7.81,4.95,1.08
398.626,7.36,6.01,0.72
398.636,6.45,7.03,0.12
398.646,5.79,8.09,-0.26
398.656,5.82,9.21,-0.61
398.666,6.83,10.17,-0.43
398.676,8.1,10.68,0.62
398.686,9.29,10.81,2.04
398.697,10.17,10.63,3.29
398.707,10.51,10.42,4.24
398.717,10.42,10.1,4.75
398.727,9.74,9.86,4.91
398.737,8.77,9.69,5.39
398.747,8.11,9.26,6.15
398.757,7.72,8.55,6.86
398.767,7.01,7.66,7.47
398.777,6.01,6.56,7.88
398.787,4.66,4.99,7.96
398.797,2.5,3.42,7.72
398.807,1.92,4.42,7.54
398.817,1.8,4.67,7.43
398.828,0.48,3.64,7.51
398.838,-1.39,3.24,7.37
398.848,-2.57,3.38,7.12
398.858,-3.27,3.5,7.33
398.868,-3.54,3.62,7.81
398.878,-3.55,3.39,8.33
398.888,-3.48,2.69,8.97
398.898,-3.45,1.92,9.55
398.908,-3.5,1.32,9.93
398.918,-3.77,0.8,10.04
398.928,-4.07,0.21,9.72
398.938,-4.58,-0.48,9.42
398.948,-4.94,-1.44,8.84
398.959,-5.09,-2.37,8.01
398.969,-5.13,-3.07,7.26
398.979,-5.11,-3.75,6.66
398.989,-4.85,-4.27,6.16
398.999,-4.42,-4.72,5.51
399.009,-4.04,-5.29,4.93
399.019,-3.9,-5.74,4.53
399.029,-4.11,-6.34,4.16
399.039,-4.74,-7.0,3.71
399.049,-5.48,-7.69,3.24
399.059,-6.18,-8.2,2.79
399.069,-6.82,-8.57,2.32
399.079,-7.16,-8.84,1.74
399.089,-6.99,-9.0,1.3
399.099,-6.49,-9.02,1.06
399.11,-5.89,-8.88,0.81
399.12,-4.94,-8.61,0.5
399.13,-3.85,-8.31,0.12
399.14,-3.24,-7.98,-0.22
399.15,-3.23,-7.93,-0.84
399.16,-2.71,-8.02,-1.25
399.17,-2.32,-8.28,-1.48
399.18,-2.71,-8.61,-1.54
399.19,-2.41,-8.56,-0.93
399.2,-2.34,-8.43,-0.48
399.211,-1.88,-8.39,-0.23
399.221,-1.29,-8.43,0.21
399.231,-0.68,-8.37,0.74
399.241,0.15,-8.04,1.33
399.251,0.53,-7.78,1.77
399.261,0.58,-7.74,1.85
399.271,0.76,-7.75,1.53
399.281,1.29,-6.21,0.98
399.291,2.04,-5.42,0.17
399.301,2.72,-5.72,-0.45
399.311,3.1,-5.65,-0.7
399.321,3.64,-5.54,-0.63
399.331,3.7,-5.34,-0.83
399.341,3.91,-4.72,-1.33
399.352,4.34,-4.32,-1.58
399.362,4.5,-4.1,-0.78
399.372,4.68,-3.59,0.31
399.382,4.46,-3.05,1.11
399.392,4.19,-2.64,1.1
399.402,3.95,-2.11,0.55
399.412,3.83,-1.19,0.29
399.422,4.24,0.2,0.76
399.432,5.88,2.0,1.67
399.442,7.94,3.89,2.68
399.452,9.4,6.19,3.59
399.462,11.05,8.52,4.14
399.473,12.25,10.03,6.86
399.483,13.3,11.73,9.6
399.493,14.22,14.27,11.45
399.503,15.83,16.67,13.15
399.513,17.37,18.02,13.38
399.523,17.82,18.23,11.9
399.533,16.91,17.19,9.32
399.543,15.26,15.26,6.4
399.553,13.6,13.01,3.75
399.563,11.9,10.83,1.91
399.573,10.45,8.8,0.69
399.583,9.43,6.8,0.0
399.593,8.72,4.75,-0.43
399.603,8.02,2.67,-0.8
399.614,7.2,0.72,-1.14
399.624,6.32,-1.09,-1.31
399.634,5.55,-2.66,-1.47
399.644,4.95,-3.9,-1.43
399.654,4.22,-4.87,-1.48
