timestamp,ax,ay,az
137.341,-0.0,0.0,-0.06
137.351,0.01,-0.0,-0.04
137.361,0.0,-0.01,-0.03
137.371,-0.02,-0.0,-0.05
137.381,-0.0,-0.01,-0.05
137.391,0.01,-0.0,-0.05
137.402,0.0,-0.02,-0.06
137.412,-0.01,-0.01,-0.05
137.422,-0.01,0.01,-0.03
137.432,-0.02,0.01,-0.04
137.442,-0.01,0.0,-0.05
137.452,-0.01,-0.01,-0.05
137.462,-0.01,-0.02,-0.04
137.472,0.0,0.01,-0.04
137.482,0.01,0.01,-0.05
137.492,-0.02,0.0,-0.05
137.503,0.01,-0.0,-0.04
137.513,0.01,-0.01,-0.05
137.523,-0.01,0.01,-0.04
137.533,-0.01,-0.01,-0.05
137.543,0.0,-0.01,-0.05
137.553,-0.0,-0.0,-0.04
137.563,0.01,-0.0,-0.04
137.573,0.0,-0.01,-0.04
137.583,0.0,-0.01,-0.05
137.593,-0.0,0.01,-0.05
137.603,-0.01,0.01,-0.05
137.613,-0.01,-0.0,-0.04
137.623,-0.02,-0.02,-0.04
137.634,-0.01,-0.0,-0.04
137.644,0.0,-0.0,-0.05
137.654,-0.01,-0.01,-0.03
137.664,-0.01,0.01,-0.05
137.674,0.01,-0.01,-0.04
137.684,0.0,-0.01,-0.05
137.694,-0.0,-0.01,-0.05
137.704,0.0,0.0,-0.04
137.714,-0.0,-0.01,-0.05
137.724,-0.01,0.0,-0.04
137.734,-0.01,0.01,-0.05
137.744,0.01,-0.0,-0.06
137.754,-0.02,0.0,-0.03
137.765,-0.0,-0.0,-0.05
137.775,0.02,-0.01,-0.07
137.785,-0.01,-0.01,-0.07
137.795,-0.01,-0.02,-0.06
137.805,-0.0,-0.01,-0.05
137.815,-0.0,-0.01,-0.06
137.825,-0.0,0.0,-0.05
137.835,0.0,-0.0,-0.05
137.845,0.0,-0.03,-0.05
137.855,0.01,-0.01,-0.05
137.866,-0.01,-0.0,-0.05
137.875,-0.0,-0.01,-0.06
137.886,-0.01,-0.02,-0.03
137.896,0.01,-0.01,-0.04
137.906,0.0,0.0,-0.04
137.916,-0.01,-0.0,-0.05
137.926,0.01,-0.0,-0.03
137.936,0.01,-0.01,-0.05
137.946,0.02,-0.0,-0.06
137.956,-0.0,0.01,-0.07
137.966,-0.0,-0.0,-0.05
137.976,-0.0,-0.01,-0.04
137.987,0.01,-0.02,-0.06
137.997,0.0,-0.02,-0.04
138.007,-0.01,-0.0,-0.04
138.017,-0.01,0.02,-0.05
138.027,-0.01,0.02,-0.05
138.037,-0.01,-0.01,-0.05
138.047,0.0,-0.01,-0.05
138.057,-0.0,-0.01,-0.07
138.067,0.01,-0.01,-0.05
138.077,0.02,0.0,-0.05
138.087,-0.01,-0.01,-0.05
138.097,-0.0,0.0,-0.05
138.108,0.02,0.01,-0.04
138.117,-0.0,0.01,-0.05
138.128,-0.02,-0.02,-0.05
138.138,0.0,-0.01,-0.04
138.148,-0.01,-0.01,-0.04
138.158,0.0,-0.0,-0.05
138.168,0.01,-0.01,-0.07
138.178,0.01,-0.01,-0.05
138.188,-0.01,-0.01,-0.04
138.198,0.01,0.01,-0.04
138.208,0.01,-0.0,-0.05
138.219,-0.0,-0.02,-0.05
138.228,0.01,0.01,-0.05
138.239,0.0,0.0,-0.04
138.249,0.0,-0.01,-0.03
138.259,-0.0,-0.02,-0.05
138.269,0.01,-0.0,-0.05
138.279,0.02,-0.01,-0.05
138.289,-0.02,-0.01,-0.05
138.299,0.0,-0.0,-0.04
138.309,0.0,-0.0,-0.04
138.319,0.02,-0.01,-0.05
138.329,-0.0,-0.0,-0.06
138.339,-0.01,-0.01,-0.04
138.349,-0.01,-0.01,-0.04
138.359,-0.01,-0.0,-0.06
138.37,0.02,-0.0,-0.05
138.38,-0.01,-0.0,-0.04
138.39,-0.01,-0.01,-0.04
138.4,-0.0,-0.01,-0.04
138.41,-0.0,-0.0,-0.05
138.42,0.01,-0.01,-0.05
138.43,-0.01,-0.01,-0.06
138.44,-0.01,-0.0,-0.05
138.45,0.0,-0.0,-0.05
138.46,-0.01,0.0,-0.05
138.471,0.0,0.0,-0.05
138.481,0.02,-0.01,-0.04
138.491,0.0,-0.01,-0.04
138.501,-0.01,-0.01,-0.05
138.511,0.01,-0.0,-0.04
138.521,0.01,0.0,-0.04
138.531,-0.01,-0.0,-0.05
138.541,-0.0,0.01,-0.05
138.551,0.01,-0.0,-0.03
138.561,0.0,-0.01,-0.03
138.571,-0.01,0.01,-0.04
138.581,0.0,-0.0,-0.05
138.592,0.0,-0.01,-0.05
138.601,0.01,-0.01,-0.05
138.612,-0.0,-0.01,-0.05
138.622,0.02,0.0,-0.04
138.632,0.01,-0.0,-0.05
138.642,-0.02,0.0,-0.04
138.652,-0.02,-0.0,-0.05
138.662,-0.01,-0.01,-0.05
138.672,0.01,-0.01,-0.05
138.682,0.0,-0.01,-0.04
138.692,-0.01,0.0,-0.05
138.702,-0.01,0.0,-0.05
138.713,-0.01,-0.02,-0.06
138.723,0.0,-0.0,-0.06
138.733,-0.0,-0.0,-0.05
138.743,-0.0,-0.01,-0.05
138.753,-0.01,-0.01,-0.05
138.763,-0.02,-0.01,-0.05
138.773,0.0,-0.01,-0.06
138.783,0.0,-0.0,-0.05
138.793,-0.01,0.01,-0.06
138.803,-0.01,-0.01,-0.05
138.813,-0.01,-0.01,-0.05
138.823,0.01,-0.01,-0.05
138.834,-0.0,-0.0,-0.05
138.843,-0.0,0.0,-0.04
138.854,0.01,0.01,-0.05
138.864,-0.0,-0.01,-0.05
138.874,-0.0,0.01,-0.04
138.884,0.0,0.0,-0.04
138.894,0.0,-0.01,-0.06
138.904,-0.0,-0.01,-0.03
138.914,0.01,-0.01,-0.04
138.924,-0.02,-0.01,-0.04
138.934,-0.0,-0.01,-0.04
138.944,0.0,-0.01,-0.04
138.954,0.0,-0.01,-0.05
138.965,0.0,-0.01,-0.05
138.975,-0.0,-0.0,-0.06
138.985,0.0,-0.0,-0.05
138.995,-0.02,0.0,-0.04
139.005,-0.0,-0.01,-0.06
139.015,-0.01,-0.01,-0.06
139.025,0.0,-0.0,-0.04
139.035,0.0,-0.02,-0.05
139.045,0.01,-0.02,-0.05
139.055,-0.0,-0.0,-0.05
139.065,-0.01,0.01,-0.06
139.076,-0.01,-0.0,-0.04
139.086,-0.0,-0.01,-0.05
139.096,-0.01,-0.0,-0.04
139.106,0.0,0.0,-0.05
139.116,0.0,0.0,-0.05
139.126,0.01,0.01,-0.04
139.136,0.0,0.0,-0.04
139.146,-0.01,-0.03,-0.05
139.156,0.01,-0.02,-0.05
139.166,0.01,-0.02,-0.05
139.176,-0.01,-0.0,-0.05
139.186,-0.01,0.01,-0.05
139.197,-0.01,0.0,-0.06
139.206,-0.0,-0.01,-0.07
139.217,0.0,-0.02,-0.05
139.227,0.0,-0.01,-0.03
139.237,0.01,-0.01,-0.05
139.247,-0.0,-0.0,-0.04
139.257,-0.01,-0.01,-0.04
139.267,-0.01,-0.01,-0.05
139.277,-0.01,-0.01,-0.05
139.287,-0.02,-0.0,-0.06
139.297,-0.02,-0.01,-0.04
139.307,0.0,-0.0,-0.06
139.318,0.01,-0.01,-0.06
139.327,0.01,-0.0,-0.05
139.338,0.01,0.01,-0.05
139.348,0.0,-0.01,-0.04
139.358,-0.0,-0.01,-0.05
139.368,-0.02,-0.0,-0.05
139.378,0.01,0.0,-0.05
139.388,0.0,-0.0,-0.06
139.398,-0.01,-0.01,-0.05
139.408,-0.01,-0.0,-0.04
139.419,-0.02,-0.0,-0.06
139.428,0.0,-0.01,-0.06
139.438,-0.01,-0.0,-0.05
139.449,-0.0,-0.01,-0.05
139.459,-0.0,-0.01,-0.04
139.469,-0.01,-0.02,-0.05
139.479,-0.01,-0.01,-0.05
139.489,-0.01,0.0,-0.06
139.499,-0.01,-0.0,-0.06
139.509,-0.01,-0.0,-0.06
139.519,-0.01,-0.01,-0.05
139.529,0.01,-0.01,-0.04
139.539,-0.02,0.0,-0.05
139.549,-0.02,-0.01,-0.06
139.559,-0.02,-0.02,-0.05
139.57,-0.02,0.0,-0.05
139.58,-0.02,0.0,-0.05
139.59,-0.02,-0.0,-0.05
139.6,-0.0,-0.0,-0.05
139.61,0.01,-0.0,-0.04
139.62,-0.02,-0.01,-0.05
139.63,-0.02,-0.01,-0.05
139.64,0.0,0.0,-0.05
139.65,0.01,0.0,-0.03
139.66,0.01,0.01,-0.05
139.67,-0.0,-0.0,-0.05
139.681,0.01,0.01,-0.05
139.69,-0.0,0.0,-0.06
139.701,-0.01,-0.02,-0.05
139.711,-0.01,0.0,-0.05
139.721,0.0,0.0,-0.05
139.731,-0.02,-0.01,-0.04
139.741,-0.01,-0.03,-0.05
139.751,-0.0,-0.01,-0.06
139.761,0.0,-0.01,-0.05
139.771,0.01,0.0,-0.05
139.781,-0.02,0.02,-0.05
139.791,-0.0,-0.0,-0.04
139.802,-0.01,-0.02,-0.04
139.812,0.01,-0.01,-0.05
139.822,-0.0,-0.01,-0.06
139.832,-0.01,0.01,-0.05
139.842,-0.02,-0.0,-0.05
139.852,-0.0,-0.02,-0.04
139.862,-0.0,-0.02,-0.06
139.872,-0.01,-0.01,-0.04
139.882,-0.0,-0.01,-0.05
139.892,-0.01,0.0,-0.05
139.902,0.0,-0.01,-0.05
139.912,0.01,-0.01,-0.06
139.923,-0.01,-0.0,-0.04
139.933,-0.01,-0.0,-0.05
139.943,-0.0,-0.01,-0.05
139.953,-0.0,-0.03,-0.03
139.963,-0.01,-0.01,-0.05
139.973,0.0,-0.01,-0.06
139.983,0.0,0.01,-0.04
139.993,-0.0,-0.02,-0.05
140.003,-0.01,-0.01,-0.06
140.013,-0.0,-0.0,-0.05
140.023,-0.01,0.0,-0.04
140.033,0.01,0.0,-0.05
140.044,-0.01,-0.0,-0.04
140.054,-0.01,0.0,-0.06
140.064,-0.01,-0.01,-0.04
140.074,0.0,-0.01,-0.05
140.084,0.01,0.0,-0.05
140.094,-0.01,0.0,-0.06
140.104,-0.0,0.01,-0.05
140.114,-0.0,0.0,-0.04
140.124,0.0,-0.01,-0.05
140.134,-0.0,-0.01,-0.04
140.144,0.0,-0.01,-0.05
140.154,-0.0,-0.0,-0.06
140.164,-0.0,-0.0,-0.05
140.175,-0.01,-0.01,-0.04
140.185,-0.0,-0.0,-0.05
140.195,-0.0,-0.02,-0.04
140.205,-0.02,0.01,-0.05
140.215,-0.01,0.01,-0.05
140.225,0.01,0.0,-0.04
140.235,-0.01,-0.01,-0.04
140.245,-0.0,-0.0,-0.04
140.255,-0.02,-0.01,-0.05
140.265,-0.0,-0.0,-0.05
140.275,0.01,-0.01,-0.04
140.286,-0.01,0.01,-0.05
140.296,0.0,0.0,-0.05
140.306,-0.01,-0.01,-0.05
140.316,-0.0,-0.02,-0.03
140.326,-0.01,-0.01,-0.04
140.336,-0.02,-0.01,-0.06
140.346,-0.01,-0.0,-0.06
140.356,-0.01,-0.0,-0.06
140.366,0.01,-0.0,-0.07
140.376,-0.01,0.0,-0.05
140.386,0.0,-0.01,-0.04
140.396,0.01,-0.01,-0.05
140.407,-0.0,0.0,-0.05
140.417,-0.01,-0.0,-0.05
140.427,-0.0,-0.02,-0.06
140.437,-0.01,0.0,-0.05
140.447,-0.02,-0.01,-0.07
140.457,-0.01,-0.02,-0.05
140.467,0.0,-0.01,-0.05
140.477,0.01,-0.0,-0.05
140.487,0.0,-0.0,-0.04
140.497,-0.01,-0.01,-0.05
140.507,-0.01,-0.02,-0.05
140.517,-0.0,0.0,-0.07
140.528,-0.03,-0.01,-0.04
140.538,-0.02,0.0,-0.05
140.548,-0.01,-0.01,-0.05
140.558,-0.02,-0.02,-0.06
140.568,-0.01,0.0,-0.04
140.578,0.01,-0.01,-0.04
140.588,-0.01,-0.01,-0.06
140.598,-0.01,-0.01,-0.06
140.608,0.0,0.0,-0.06
140.618,-0.01,-0.01,-0.05
140.628,-0.01,-0.01,-0.05
140.638,-0.01,-0.0,-0.05
140.649,0.0,-0.0,-0.05
140.659,-0.01,-0.01,-0.05
140.669,-0.01,-0.01,-0.05
140.679,-0.01,-0.01,-0.04
140.689,0.01,-0.0,-0.05
140.699,-0.0,-0.0,-0.05
140.709,-0.02,-0.01,-0.04
140.719,-0.0,-0.01,-0.04
140.729,-0.0,-0.01,-0.07
140.739,-0.01,0.0,-0.05
140.749,0.01,-0.01,-0.05
140.759,-0.0,-0.02,-0.05
140.769,-0.0,-0.01,-0.05
140.779,-0.0,0.01,-0.05
140.79,-0.01,0.01,-0.04
140.8,-0.0,-0.01,-0.04
140.81,-0.0,-0.01,-0.04
140.82,-0.03,-0.0,-0.04
140.83,-0.01,-0.0,-0.04
140.84,-0.01,0.01,-0.04
140.85,-0.01,-0.01,-0.05
140.86,-0.01,0.01,-0.06
140.87,0.0,0.0,-0.05
140.88,-0.01,-0.0,-0.05
140.89,-0.01,-0.01,-0.04
140.901,-0.01,-0.01,-0.04
140.911,-0.03,0.0,-0.05
140.921,-0.01,-0.0,-0.06
140.931,-0.01,-0.0,-0.06
140.941,-0.0,-0.0,-0.04
140.951,-0.02,-0.0,-0.04
140.961,0.0,0.0,-0.05
140.971,0.0,-0.02,-0.04
140.981,-0.0,-0.01,-0.04
140.991,-0.02,-0.01,-0.05
141.001,-0.01,-0.02,-0.04
141.012,-0.01,-0.01,-0.06
141.022,-0.0,-0.02,-0.04
141.032,-0.02,-0.01,-0.04
141.042,-0.01,-0.01,-0.04
141.052,-0.02,-0.01,-0.05
141.062,-0.01,-0.01,-0.05
141.072,0.01,0.0,-0.06
141.082,0.0,-0.02,-0.05
141.092,0.02,-0.0,-0.06
141.102,0.01,-0.01,-0.05
141.112,-0.01,-0.02,-0.05
141.122,-0.01,-0.01,-0.05
141.133,-0.0,-0.0,-0.03
141.143,-0.01,-0.01,-0.05
141.153,-0.01,-0.0,-0.06
141.163,0.01,-0.0,-0.05
141.173,-0.01,-0.0,-0.04
141.183,-0.0,-0.02,-0.05
141.193,0.0,-0.01,-0.05
141.203,-0.01,-0.01,-0.06
141.213,0.0,-0.0,-0.06
141.223,0.0,-0.0,-0.05
141.233,-0.01,-0.01,-0.05
141.243,-0.01,-0.01,-0.04
141.254,-0.02,-0.01,-0.06
141.264,-0.01,-0.02,-0.05
141.274,-0.01,-0.02,-0.06
141.284,-0.0,-0.02,-0.06
141.294,0.0,-0.0,-0.04
141.304,-0.01,0.0,-0.05
141.314,-0.01,0.0,-0.06
141.324,-0.01,-0.01,-0.05
141.334,-0.02,-0.01,-0.06
141.344,0.0,-0.01,-0.05
141.354,0.01,0.0,-0.06
141.364,0.01,-0.0,-0.05
141.375,-0.0,0.01,-0.06
141.385,0.0,-0.01,-0.04
141.395,0.0,0.0,-0.05
141.405,0.0,-0.01,-0.05
141.415,-0.0,-0.01,-0.06
141.425,-0.01,-0.01,-0.05
141.435,-0.01,-0.01,-0.05
141.445,-0.02,-0.0,-0.05
141.455,-0.01,0.01,-0.05
141.465,-0.01,0.0,-0.07
141.475,-0.01,0.01,-0.05
141.485,0.0,0.0,-0.03
141.496,-0.01,-0.01,-0.05
141.506,-0.01,-0.01,-0.04
141.516,-0.0,-0.0,-0.05
141.526,0.0,-0.02,-0.06
141.536,0.0,-0.0,-0.06
141.546,-0.0,0.0,-0.05
141.556,-0.02,-0.01,-0.06
141.566,-0.01,-0.02,-0.05
141.576,0.0,-0.01,-0.05
141.586,-0.01,0.0,-0.04
141.597,0.0,0.01,-0.04
141.606,-0.01,-0.0,-0.04
141.617,-0.01,-0.01,-0.06
141.627,0.0,-0.01,-0.06
141.637,0.01,0.0,-0.06
141.647,-0.0,-0.0,-0.05
141.657,-0.01,-0.01,-0.05
141.667,-0.0,-0.0,-0.05
141.677,-0.01,-0.01,-0.05
141.687,-0.01,0.0,-0.06
141.697,-0.01,-0.01,-0.04
141.707,0.01,-0.01,-0.04
141.717,0.02,-0.01,-0.04
141.727,0.0,-0.0,-0.06
141.738,-0.0,0.0,-0.06
141.748,-0.0,0.0,-0.05
141.758,-0.01,-0.0,-0.05
141.768,-0.0,-0.01,-0.05
141.778,-0.01,0.0,-0.05
141.788,0.01,-0.0,-0.05
141.798,0.01,-0.01,-0.05
141.808,-0.01,-0.01,-0.06
141.818,-0.01,-0.01,-0.04
141.828,0.02,-0.0,-0.03
141.839,-0.0,-0.01,-0.04
141.848,0.01,-0.02,-0.05
141.858,-0.01,-0.01,-0.05
141.869,-0.02,0.0,-0.06
141.879,-0.01,-0.0,-0.05
141.889,0.01,-0.01,-0.06
141.899,-0.01,-0.0,-0.04
141.909,0.01,-0.02,-0.04
141.919,0.01,-0.01,-0.06
141.929,-0.0,-0.01,-0.06
141.939,-0.01,-0.01,-0.04
141.949,0.01,-0.0,-0.05
141.959,0.0,-0.01,-0.05
141.969,-0.01,-0.01,-0.05
141.98,-0.02,-0.01,-0.05
141.99,0.0,-0.0,-0.04
142.0,-0.0,0.0,-0.05
142.01,-0.02,0.0,-0.06
142.02,-0.01,-0.0,-0.06
142.03,0.01,-0.0,-0.05
142.04,-0.0,-0.01,-0.06
142.05,0.01,-0.01,-0.06
142.06,-0.0,-0.01,-0.06
142.07,-0.0,-0.02,-0.05
142.081,-0.01,-0.02,-0.06
142.09,0.0,0.0,-0.04
142.101,-0.01,-0.0,-0.05
142.111,-0.01,0.0,-0.06
142.121,0.0,0.01,-0.04
142.131,0.0,-0.0,-0.04
142.141,-0.0,0.01,-0.06
142.151,-0.0,-0.0,-0.05
142.161,-0.0,-0.01,-0.05
142.171,-0.02,-0.0,-0.05
142.181,-0.01,-0.01,-0.04
142.191,0.0,-0.01,-0.04
142.201,-0.01,-0.01,-0.05
142.211,-0.01,-0.01,-0.05
142.222,0.01,-0.0,-0.05
142.232,-0.01,0.01,-0.04
142.242,0.0,-0.0,-0.06
142.252,-0.01,-0.02,-0.05
142.262,-0.02,-0.0,-0.05
142.272,-0.0,-0.0,-0.05
142.282,0.0,0.0,-0.06
142.292,0.0,0.0,-0.04
142.302,-0.0,-0.01,-0.05
142.312,0.0,-0.01,-0.06
142.322,0.0,0.0,-0.04
