timestamp,ax,ay,az
132.793,-0.01,-0.01,-0.05
132.803,0.01,-0.0,-0.04
132.814,0.0,-0.01,-0.05
132.824,-0.0,-0.0,-0.04
132.834,-0.01,-0.0,-0.05
132.844,-0.0,-0.0,-0.06
132.854,0.01,-0.01,-0.04
132.864,-0.01,-0.01,-0.04
132.874,-0.01,0.01,-0.05
132.884,-0.0,0.02,-0.05
132.894,-0.0,-0.01,-0.04
132.904,-0.01,-0.0,-0.05
132.914,-0.03,0.01,-0.06
132.925,-0.02,0.01,-0.05
132.934,-0.01,-0.0,-0.06
132.945,-0.02,0.01,-0.05
132.955,-0.01,-0.01,-0.05
132.965,-0.01,-0.0,-0.05
132.975,-0.02,0.01,-0.05
132.985,-0.01,-0.0,-0.06
132.995,-0.02,-0.0,-0.06
133.005,0.0,-0.0,-0.05
133.015,-0.0,-0.0,-0.05
133.025,-0.01,0.01,-0.04
133.035,0.0,0.0,-0.04
133.046,0.0,-0.01,-0.03
133.056,-0.01,0.0,-0.03
133.066,-0.02,-0.0,-0.05
133.076,-0.01,0.0,-0.05
133.086,0.0,0.01,-0.04
133.096,-0.0,0.0,-0.04
133.106,0.0,-0.01,-0.05
133.116,-0.01,0.01,-0.05
133.126,-0.01,0.0,-0.04
133.136,0.01,-0.01,-0.04
133.147,-0.01,-0.0,-0.04
133.156,0.0,0.01,-0.04
133.167,-0.0,0.0,-0.03
133.177,-0.01,0.0,-0.06
133.187,-0.02,-0.0,-0.05
133.197,-0.01,-0.01,-0.04
133.207,-0.01,0.01,-0.06
133.217,-0.01,0.01,-0.04
133.227,-0.01,-0.01,-0.05
133.237,0.01,0.01,-0.06
133.247,-0.01,0.0,-0.04
133.257,-0.01,0.0,-0.06
133.267,-0.01,-0.0,-0.05
133.277,0.01,0.0,-0.06
133.288,0.0,-0.01,-0.04
133.298,-0.01,-0.0,-0.03
133.308,-0.0,-0.01,-0.03
133.318,0.01,-0.0,-0.04
133.328,0.01,-0.0,-0.04
133.338,-0.01,0.01,-0.04
133.348,-0.01,0.0,-0.03
133.358,-0.01,0.02,-0.04
133.368,-0.0,-0.01,-0.06
133.378,-0.01,-0.01,-0.05
133.388,-0.01,0.0,-0.05
133.398,0.0,-0.0,-0.05
133.409,0.01,-0.0,-0.05
133.419,0.0,0.0,-0.06
133.429,-0.01,0.0,-0.04
133.439,-0.01,-0.0,-0.05
133.449,0.0,-0.01,-0.05
133.459,0.01,-0.01,-0.05
133.469,0.0,0.01,-0.05
133.479,0.0,0.0,-0.05
133.489,-0.0,-0.0,-0.02
133.499,-0.01,-0.0,-0.05
133.509,-0.02,0.0,-0.05
133.519,-0.01,-0.01,-0.06
133.53,-0.01,0.0,-0.04
133.54,-0.02,0.0,-0.04
133.55,-0.02,0.01,-0.05
133.56,-0.0,0.0,-0.05
133.57,-0.02,0.02,-0.04
133.58,-0.0,-0.01,-0.04
133.59,0.0,0.02,-0.05
133.6,-0.0,0.01,-0.06
133.61,-0.01,-0.01,-0.04
133.62,-0.0,-0.01,-0.05
133.63,-0.01,-0.0,-0.05
133.64,-0.01,-0.01,-0.06
133.651,0.01,-0.0,-0.06
133.661,0.01,0.01,-0.05
133.671,-0.01,0.0,-0.04
133.681,0.0,0.01,-0.05
133.691,-0.01,0.02,-0.05
133.701,-0.01,0.0,-0.05
133.711,-0.0,0.0,-0.05
133.721,-0.01,-0.01,-0.05
133.731,-0.01,-0.01,-0.06
133.741,-0.0,0.0,-0.06
133.751,-0.01,0.0,-0.06
133.761,-0.02,-0.01,-0.06
133.772,0.0,-0.01,-0.05
133.782,0.0,0.0,-0.05
133.792,0.0,0.0,-0.05
133.802,-0.01,-0.01,-0.06
133.812,-0.0,-0.0,-0.04
133.822,-0.0,-0.0,-0.04
133.832,-0.01,-0.0,-0.04
133.842,0.0,-0.01,-0.05
133.852,-0.01,0.01,-0.05
133.862,-0.01,-0.01,-0.05
133.872,-0.01,0.01,-0.05
133.882,-0.02,-0.01,-0.04
133.893,-0.01,-0.01,-0.05
133.903,-0.01,-0.0,-0.06
133.913,-0.0,-0.0,-0.04
133.923,-0.01,0.0,-0.06
133.933,-0.01,-0.0,-0.04
133.943,0.01,-0.01,-0.04
133.953,-0.0,-0.01,-0.05
133.963,-0.01,0.0,-0.06
133.973,-0.0,-0.0,-0.05
133.983,0.01,0.0,-0.04
133.993,-0.01,-0.0,-0.05
134.003,-0.0,-0.01,-0.03
134.014,-0.0,0.0,-0.04
134.024,-0.0,0.01,-0.05
134.034,-0.01,-0.0,-0.04
134.044,-0.01,-0.0,-0.05
134.054,-0.01,0.02,-0.04
134.064,0.0,0.0,-0.04
134.074,-0.0,-0.0,-0.04
134.084,-0.01,0.01,-0.06
134.094,0.0,0.01,-0.05
134.104,0.0,0.01,-0.06
134.114,-0.0,0.01,-0.05
134.124,0.01,0.0,-0.05
134.135,-0.0,0.02,-0.04
134.145,0.0,0.01,-0.05
134.155,-0.01,0.02,-0.04
134.165,-0.02,-0.0,-0.05
134.175,-0.02,-0.01,-0.05
134.185,-0.01,0.01,-0.06
134.195,-0.01,-0.01,-0.06
134.205,0.01,-0.02,-0.05
134.215,0.01,-0.0,-0.05
134.225,-0.01,-0.01,-0.03
134.235,0.0,-0.0,-0.04
134.245,-0.02,0.0,-0.06
134.256,-0.02,0.01,-0.06
134.266,0.0,0.0,-0.04
134.276,0.0,0.01,-0.05
134.286,-0.0,0.01,-0.05
134.296,-0.01,-0.01,-0.06
134.306,-0.02,-0.02,-0.05
134.316,-0.0,0.01,-0.06
134.326,-0.01,-0.0,-0.05
134.336,-0.01,-0.01,-0.05
134.346,0.01,0.01,-0.05
134.356,-0.01,-0.0,-0.04
134.366,0.0,0.01,-0.06
134.377,-0.0,0.01,-0.03
134.387,-0.01,-0.0,-0.05
134.397,-0.0,-0.0,-0.04
134.407,-0.01,-0.01,-0.04
134.417,-0.01,0.01,-0.05
134.427,-0.0,-0.0,-0.04
134.437,-0.01,-0.01,-0.05
134.447,0.0,0.0,-0.06
134.457,-0.02,0.01,-0.06
134.467,-0.01,0.0,-0.05
134.477,0.0,0.0,-0.05
134.487,-0.0,-0.0,-0.05
134.498,-0.01,-0.01,-0.04
134.508,-0.01,0.01,-0.03
134.518,-0.01,-0.0,-0.05
134.528,0.0,0.0,-0.04
134.538,-0.0,-0.01,-0.06
134.548,0.0,-0.0,-0.05
134.558,-0.01,0.0,-0.07
134.568,0.01,-0.01,-0.05
134.578,-0.0,-0.01,-0.04
134.588,-0.02,0.01,-0.04
134.599,-0.0,-0.0,-0.05
134.608,-0.02,0.01,-0.04
134.619,-0.02,0.0,-0.04
134.629,-0.01,-0.0,-0.04
134.639,-0.0,-0.01,-0.04
134.649,-0.0,-0.0,-0.04
134.659,-0.01,0.01,-0.05
134.669,-0.01,-0.01,-0.06
134.679,-0.01,-0.01,-0.05
134.689,-0.01,-0.0,-0.05
134.699,-0.0,-0.01,-0.04
134.709,-0.01,0.01,-0.04
134.719,0.0,0.0,-0.05
134.729,-0.0,-0.01,-0.05
134.74,-0.0,0.0,-0.06
134.75,-0.0,-0.01,-0.05
134.76,0.0,-0.01,-0.06
134.77,0.0,-0.0,-0.05
134.78,-0.01,-0.0,-0.05
134.79,-0.01,0.0,-0.05
134.8,-0.01,0.01,-0.06
134.81,-0.01,-0.02,-0.04
134.82,-0.01,-0.01,-0.04
134.83,-0.01,-0.0,-0.05
134.84,-0.0,-0.0,-0.05
134.85,-0.01,0.01,-0.05
134.861,0.01,0.0,-0.05
134.871,-0.01,0.01,-0.05
134.881,-0.0,-0.01,-0.05
134.891,-0.0,-0.01,-0.05
134.901,-0.02,0.0,-0.04
134.911,-0.01,0.0,-0.05
134.921,-0.01,-0.0,-0.04
134.931,0.0,0.0,-0.04
134.941,-0.01,0.01,-0.04
134.951,-0.01,0.01,-0.05
134.961,-0.03,0.0,-0.06
134.971,-0.01,0.0,-0.05
134.982,-0.0,-0.0,-0.06
134.992,0.01,-0.01,-0.05
135.002,-0.01,-0.0,-0.07
135.012,-0.0,-0.02,-0.05
135.022,-0.01,-0.0,-0.05
135.032,-0.02,-0.0,-0.05
135.042,-0.0,-0.0,-0.06
135.052,0.01,-0.0,-0.05
135.062,-0.01,-0.01,-0.04
135.072,-0.03,0.01,-0.07
135.082,-0.01,-0.01,-0.04
135.092,-0.01,-0.01,-0.06
135.103,-0.02,-0.0,-0.05
135.113,-0.01,-0.0,-0.05
135.123,0.0,-0.01,-0.04
135.133,-0.01,0.01,-0.04
135.143,-0.0,0.01,-0.06
135.153,0.0,0.0,-0.05
135.163,-0.01,0.01,-0.05
135.173,-0.03,-0.01,-0.05
135.183,-0.01,0.0,-0.06
135.193,-0.01,-0.0,-0.06
135.203,-0.01,0.0,-0.04
135.214,-0.01,-0.01,-0.05
135.224,-0.01,-0.01,-0.04
135.234,-0.01,0.0,-0.03
135.244,-0.02,0.02,-0.06
135.254,0.0,0.01,-0.05
135.264,-0.0,0.0,-0.05
135.274,0.01,0.01,-0.05
135.284,-0.01,-0.0,-0.05
135.294,0.01,-0.01,-0.05
135.304,-0.0,0.0,-0.05
135.314,-0.02,0.0,-0.06
135.324,-0.02,-0.0,-0.05
135.334,0.0,-0.0,-0.04
135.345,-0.01,-0.01,-0.05
135.355,-0.0,-0.0,-0.05
135.365,-0.01,-0.01,-0.05
135.375,-0.01,-0.01,-0.05
135.385,0.01,-0.0,-0.03
135.395,0.0,0.0,-0.05
135.405,-0.02,-0.01,-0.04
135.415,0.0,-0.01,-0.05
135.425,-0.01,-0.0,-0.04
135.435,0.0,-0.01,-0.06
135.445,0.01,-0.0,-0.05
135.456,-0.01,0.0,-0.06
135.466,-0.0,-0.0,-0.04
135.476,-0.0,0.0,-0.06
135.486,0.01,-0.01,-0.05
135.496,0.0,-0.01,-0.04
135.506,-0.01,0.0,-0.03
135.516,0.01,-0.01,-0.05
135.526,-0.02,0.01,-0.06
135.536,-0.02,-0.01,-0.05
135.546,0.0,-0.01,-0.04
135.556,0.01,-0.01,-0.03
135.566,-0.01,0.0,-0.04
135.576,-0.01,0.0,-0.06
135.587,-0.01,-0.02,-0.05
135.596,-0.01,0.01,-0.05
135.607,-0.02,-0.02,-0.05
135.617,-0.0,-0.01,-0.05
135.627,-0.01,-0.0,-0.03
135.637,-0.02,-0.01,-0.04
135.647,0.01,-0.01,-0.05
135.657,-0.01,-0.01,-0.05
135.667,-0.0,0.01,-0.04
135.677,-0.0,0.01,-0.04
135.687,-0.0,-0.0,-0.04
135.697,-0.02,0.0,-0.05
135.708,-0.01,-0.0,-0.05
135.718,-0.01,-0.01,-0.05
135.728,0.01,-0.01,-0.05
135.738,0.0,-0.01,-0.04
135.748,-0.01,-0.0,-0.05
135.758,-0.01,0.0,-0.04
135.768,-0.0,0.01,-0.05
135.778,-0.0,-0.01,-0.06
135.788,0.01,-0.01,-0.05
135.798,-0.0,0.0,-0.06
135.808,-0.02,0.0,-0.05
135.818,-0.02,-0.0,-0.05
135.829,0.02,-0.01,-0.06
135.839,-0.0,-0.0,-0.04
135.849,-0.01,0.0,-0.06
135.859,-0.0,-0.0,-0.05
135.869,-0.01,-0.02,-0.05
135.879,-0.01,0.0,-0.06
135.889,-0.01,0.0,-0.03
135.899,0.01,-0.01,-0.04
135.909,-0.01,-0.0,-0.05
135.919,-0.01,-0.0,-0.05
135.93,-0.01,0.0,-0.05
135.94,-0.01,-0.01,-0.05
135.95,0.0,-0.01,-0.03
135.96,-0.0,-0.0,-0.04
135.97,-0.0,0.0,-0.06
135.98,-0.01,-0.01,-0.05
135.99,-0.01,-0.0,-0.05
136.0,-0.01,0.0,-0.04
136.01,-0.0,-0.01,-0.05
136.02,-0.01,-0.01,-0.04
136.03,0.0,-0.0,-0.04
136.04,0.01,-0.0,-0.06
136.05,-0.02,0.01,-0.05
136.06,-0.0,-0.01,-0.07
136.071,-0.0,-0.01,-0.04
136.081,-0.01,0.0,-0.04
136.091,-0.01,-0.01,-0.04
136.101,0.0,0.0,-0.03
136.111,-0.0,0.0,-0.05
136.121,-0.01,-0.0,-0.06
136.131,-0.01,0.02,-0.07
136.141,-0.02,-0.0,-0.05
136.151,0.0,-0.02,-0.03
136.161,-0.0,-0.01,-0.03
136.171,-0.01,-0.0,-0.05
136.182,0.0,-0.01,-0.04
136.192,0.01,-0.01,-0.03
136.202,0.01,0.01,-0.05
136.212,-0.0,-0.01,-0.04
136.222,0.0,0.01,-0.04
136.232,-0.0,-0.01,-0.05
136.242,0.01,0.0,-0.06
136.252,-0.0,-0.01,-0.05
136.262,0.01,-0.01,-0.04
136.272,-0.0,-0.0,-0.04
136.282,0.01,0.0,-0.05
136.292,0.0,-0.01,-0.05
136.302,-0.0,-0.01,-0.04
136.313,-0.01,0.01,-0.04
136.323,-0.01,-0.0,-0.04
136.333,-0.0,-0.03,-0.05
136.343,-0.01,-0.01,-0.05
136.353,-0.02,-0.0,-0.05
136.363,-0.01,-0.0,-0.05
136.373,-0.01,0.0,-0.05
136.383,0.0,-0.0,-0.04
136.393,0.0,-0.02,-0.04
136.403,0.0,0.01,-0.05
136.413,-0.0,0.0,-0.06
136.424,-0.0,-0.01,-0.04
136.434,0.0,-0.0,-0.05
136.444,0.0,0.01,-0.05
136.454,-0.0,0.01,-0.05
136.464,-0.01,0.01,-0.05
136.474,0.01,0.0,-0.03
136.484,0.0,0.0,-0.05
136.494,0.01,-0.0,-0.06
136.504,-0.0,-0.01,-0.06
136.514,-0.01,-0.0,-0.06
136.524,-0.01,0.01,-0.04
136.535,-0.0,-0.01,-0.06
136.544,-0.01,-0.0,-0.05
136.555,0.01,-0.01,-0.05
136.565,-0.0,-0.02,-0.05
136.575,0.0,0.0,-0.04
136.585,0.0,-0.0,-0.04
136.595,-0.02,-0.01,-0.05
136.605,0.01,-0.0,-0.04
136.615,-0.0,-0.01,-0.05
136.625,-0.01,0.01,-0.05
136.635,-0.01,0.0,-0.04
136.645,0.01,-0.02,-0.04
136.656,-0.01,-0.02,-0.04
136.666,0.0,-0.0,-0.04
136.676,-0.0,-0.0,-0.06
136.686,0.0,-0.0,-0.05
136.696,-0.0,-0.02,-0.05
136.706,-0.01,-0.01,-0.04
136.716,0.01,-0.0,-0.04
136.726,-0.0,-0.0,-0.04
136.736,-0.01,0.0,-0.04
136.746,0.0,-0.0,-0.04
136.756,-0.01,-0.0,-0.06
136.766,0.0,-0.01,-0.06
136.776,0.01,-0.01,-0.05
136.787,0.0,-0.0,-0.05
136.797,-0.0,-0.02,-0.04
136.807,-0.01,-0.01,-0.04
136.817,-0.01,-0.0,-0.05
136.827,-0.0,-0.01,-0.04
136.837,-0.01,-0.01,-0.06
136.847,0.01,-0.02,-0.05
136.857,0.02,-0.02,-0.04
136.867,0.03,-0.01,-0.05
136.877,-0.01,-0.01,-0.04
136.887,0.0,-0.01,-0.04
136.898,-0.01,-0.01,-0.05
136.907,-0.01,-0.01,-0.04
136.918,-0.01,-0.0,-0.05
136.928,0.01,-0.0,-0.04
136.938,-0.01,0.0,-0.04
136.948,-0.01,0.01,-0.04
136.958,0.0,-0.0,-0.04
136.968,0.0,0.0,-0.04
136.978,-0.02,-0.0,-0.05
136.988,-0.02,0.01,-0.07
136.998,-0.0,0.0,-0.04
137.008,-0.0,-0.01,-0.05
137.019,-0.01,-0.02,-0.04
137.029,-0.01,-0.0,-0.04
137.039,0.0,-0.01,-0.04
137.049,0.01,-0.01,-0.05
137.059,-0.02,-0.01,-0.04
137.069,0.01,-0.0,-0.04
137.079,0.01,-0.0,-0.05
137.089,-0.01,-0.01,-0.05
137.099,-0.01,-0.01,-0.06
137.109,-0.0,0.0,-0.05
137.119,-0.0,0.01,-0.04
137.129,-0.02,-0.01,-0.04
137.14,-0.01,-0.01,-0.04
137.15,-0.0,-0.01,-0.06
137.16,0.0,-0.0,-0.06
137.17,-0.01,0.01,-0.05
137.18,0.01,0.0,-0.05
137.19,0.01,-0.0,-0.04
137.2,-0.01,0.0,-0.03
137.21,-0.0,-0.01,-0.03
137.22,0.01,-0.01,-0.04
137.23,0.01,-0.0,-0.05
137.24,-0.01,-0.01,-0.04
137.25,-0.0,0.0,-0.06
137.26,-0.0,0.0,-0.04
137.271,-0.01,0.0,-0.05
137.281,-0.01,-0.01,-0.05
137.291,-0.01,-0.02,-0.04
137.301,-0.0,-0.0,-0.04
137.311,0.01,-0.01,-0.05
137.321,0.01,-0.01,-0.05
137.331,0.01,0.0,-0.03
137.341,-0.0,0.0,-0.06
137.351,0.01,-0.0,-0.04
137.361,0.0,-0.01,-0.03
137.371,-0.02,-0.0,-0.05
137.381,-0.0,-0.01,-0.05
137.391,0.01,-0.0,-0.05
137.402,0.0,-0.02,-0.06
137.412,-0.01,-0.01,-0.05
137.422,-0.01,0.01,-0.03
137.432,-0.02,0.01,-0.04
137.442,-0.01,0.0,-0.05
137.452,-0.01,-0.01,-0.05
137.462,-0.01,-0.02,-0.04
137.472,0.0,0.01,-0.04
137.482,0.01,0.01,-0.05
137.492,-0.02,0.0,-0.05
137.503,0.01,-0.0,-0.04
137.513,0.01,-0.01,-0.05
137.523,-0.01,0.01,-0.04
137.533,-0.01,-0.01,-0.05
137.543,0.0,-0.01,-0.05
137.553,-0.0,-0.0,-0.04
137.563,0.01,-0.0,-0.04
137.573,0.0,-0.01,-0.04
137.583,0.0,-0.01,-0.05
137.593,-0.0,0.01,-0.05
137.603,-0.01,0.01,-0.05
137.613,-0.01,-0.0,-0.04
137.623,-0.02,-0.02,-0.04
137.634,-0.01,-0.0,-0.04
137.644,0.0,-0.0,-0.05
137.654,-0.01,-0.01,-0.03
137.664,-0.01,0.01,-0.05
137.674,0.01,-0.01,-0.04
137.684,0.0,-0.01,-0.05
137.694,-0.0,-0.01,-0.05
137.704,0.0,0.0,-0.04
137.714,-0.0,-0.01,-0.05
137.724,-0.01,0.0,-0.04
137.734,-0.01,0.01,-0.05
137.744,0.01,-0.0,-0.06
137.754,-0.02,0.0,-0.03
137.765,-0.0,-0.0,-0.05
137.775,0.02,-0.01,-0.07
