timestamp,ax,ay,az
295.515,0.62,-0.05,-0.03
295.525,0.89,0.06,-0.15
295.535,1.03,0.16,-0.26
295.545,1.05,0.14,-0.34
295.556,1.05,0.02,-0.32
295.566,0.99,-0.06,-0.2
295.576,1.08,-0.1,-0.04
295.586,1.15,-0.07,0.1
295.596,1.2,-0.01,0.14
295.606,1.29,-0.0,0.17
295.616,1.36,0.04,0.21
295.626,1.38,0.12,0.19
295.636,1.34,0.15,0.08
295.646,1.31,0.22,0.01
295.656,1.4,0.33,0.07
295.666,1.58,0.38,0.4
295.676,1.8,0.38,0.8
295.686,1.99,0.38,0.98
295.697,2.01,0.36,1.05
295.707,1.94,0.23,0.88
295.717,1.67,0.04,0.38
295.727,1.38,-0.1,-0.28
295.737,1.18,-0.06,-0.7
295.747,0.99,-0.06,-0.95
295.757,0.92,-0.09,-1.01
295.767,0.89,-0.15,-0.89
295.777,0.91,-0.21,-0.64
295.787,1.0,-0.26,-0.42
295.797,1.09,-0.26,-0.16
295.807,1.11,-0.27,-0.01
295.818,1.14,-0.3,0.06
295.827,1.19,-0.25,0.14
295.838,1.29,-0.23,0.24
295.848,1.36,-0.25,0.38
295.858,1.32,-0.37,0.4
295.868,1.26,-0.57,0.38
295.878,1.1,-0.73,0.27
295.888,0.89,-0.87,0.15
295.898,0.76,-1.02,0.11
295.908,0.65,-1.17,0.06
295.918,0.53,-1.22,-0.08
295.928,0.51,-1.21,-0.15
295.938,0.38,-1.15,-0.26
295.949,0.37,-1.13,-0.37
295.959,0.4,-1.04,-0.48
295.969,0.4,-0.89,-0.63
295.979,0.49,-0.73,-0.72
295.989,0.57,-0.54,-0.72
295.999,0.6,-0.34,-0.73
296.009,0.69,-0.17,-0.65
296.019,0.83,0.01,-0.56
296.029,0.88,0.22,-0.49
296.039,0.81,0.36,-0.5
296.049,0.68,0.47,-0.56
296.059,0.63,0.58,-0.58
296.069,0.54,0.68,-0.61
296.08,0.42,0.75,-0.64
296.09,0.33,0.67,-0.68
296.1,0.21,0.58,-0.62
296.11,0.11,0.45,-0.5
296.12,0.1,0.22,-0.33
296.13,0.02,-0.05,-0.14
296.14,-0.14,-0.28,-0.01
296.15,-0.32,-0.48,0.05
296.16,-0.44,-0.62,0.2
296.17,-0.51,-0.67,0.38
296.18,-0.58,-0.68,0.59
296.19,-0.67,-0.75,0.81
296.201,-0.8,-0.87,0.99
296.21,-1.03,-1.05,1.22
296.221,-1.26,-1.25,1.39
296.231,-1.57,-1.37,1.47
296.241,-1.86,-1.46,1.48
296.251,-2.17,-1.53,1.37
296.261,-2.42,-1.5,1.22
296.271,-2.68,-1.43,0.96
296.281,-2.87,-1.28,0.72
296.291,-2.83,-1.0,0.5
296.301,-2.71,-0.58,0.36
296.311,-2.45,-0.15,0.41
296.322,-2.04,0.28,0.74
296.332,-1.54,0.7,1.36
296.342,-0.95,1.05,2.06
296.352,-0.57,1.29,2.51
296.362,-0.51,1.46,2.43
296.372,-0.72,1.59,1.88
296.382,-1.05,1.58,1.25
296.392,-1.38,1.64,0.75
296.402,-1.58,1.69,0.46
296.412,-1.69,1.81,0.37
296.422,-1.73,1.94,0.53
296.432,-1.65,1.95,0.84
296.442,-1.54,1.92,1.28
296.452,-1.44,1.78,1.63
296.463,-1.26,1.5,1.91
296.473,-1.08,1.18,2.08
296.483,-0.95,0.95,2.06
296.493,-0.92,0.73,1.94
296.503,-0.89,0.55,1.7
296.513,-0.97,0.45,1.44
296.523,-1.12,0.42,1.23
296.533,-1.31,0.34,1.07
296.543,-1.54,0.26,0.84
296.553,-1.78,0.27,0.75
296.563,-1.79,0.27,0.6
296.574,-1.84,0.25,0.67
296.584,-1.86,0.11,0.62
296.594,-1.75,-0.09,0.55
296.604,-1.57,-0.27,0.48
296.614,-1.36,-0.37,0.39
296.624,-1.18,-0.36,0.23
296.634,-0.95,-0.31,0.04
296.644,-0.8,-0.22,-0.13
296.654,-0.67,-0.19,-0.19
296.664,-0.5,-0.31,-0.14
296.674,-0.37,-0.43,-0.16
296.684,-0.3,-0.59,-0.18
296.694,-0.23,-0.78,-0.22
296.705,-0.24,-0.94,-0.36
296.714,-0.3,-1.05,-0.63
296.725,-0.39,-1.11,-0.86
296.735,-0.47,-1.13,-0.97
296.745,-0.58,-1.09,-1.01
296.755,-0.55,-1.05,-0.93
296.765,-0.41,-0.96,-0.81
296.775,-0.31,-0.81,-0.75
296.785,-0.22,-0.69,-0.59
296.795,-0.2,-0.58,-0.51
296.805,-0.17,-0.45,-0.48
296.815,-0.2,-0.26,-0.44
296.826,-0.19,-0.06,-0.38
296.836,-0.16,0.12,-0.31
296.846,-0.09,0.19,-0.19
296.856,-0.06,0.21,-0.06
296.866,-0.04,0.21,0.04
296.876,0.08,0.17,0.17
296.886,0.19,0.1,0.25
296.896,0.31,0.11,0.29
296.906,0.45,0.11,0.26
296.916,0.59,0.14,0.12
296.926,0.68,0.18,-0.14
296.936,0.76,0.23,-0.43
296.946,0.85,0.26,-0.71
296.956,0.92,0.36,-0.98
296.967,1.01,0.52,-1.14
296.977,1.08,0.59,-1.17
296.987,1.09,0.61,-1.08
296.997,1.04,0.56,-0.87
297.007,1.03,0.44,-0.57
297.017,1.04,0.27,-0.22
297.027,1.02,0.09,0.03
297.037,1.03,-0.01,0.16
297.047,0.96,-0.04,0.2
297.057,0.86,0.01,0.09
297.067,0.73,0.04,-0.09
297.077,0.57,0.09,-0.24
297.088,0.5,0.19,-0.4
297.097,0.51,0.22,-0.34
297.108,0.51,0.26,-0.3
297.118,0.52,0.3,-0.24
297.128,0.52,0.28,-0.17
297.138,0.47,0.24,-0.13
297.148,0.5,0.19,-0.12
297.158,0.54,0.14,-0.07
297.168,0.56,0.12,-0.05
297.178,0.62,0.12,-0.01
297.188,0.62,-0.01,0.07
297.198,0.53,-0.07,0.15
297.208,0.36,-0.23,0.2
297.218,0.17,-0.4,0.27
297.229,0.0,-0.52,0.28
297.239,-0.18,-0.54,0.24
297.249,-0.32,-0.46,0.15
297.259,-0.47,-0.3,-0.04
297.269,-0.64,-0.13,-0.34
297.279,-0.83,-0.0,-0.67
297.289,-1.04,0.08,-0.94
297.299,-1.33,0.32,-1.14
297.309,-1.53,0.62,-1.09
297.319,-1.49,0.81,-0.51
297.329,-1.21,0.83,0.29
297.339,-0.89,0.79,0.94
297.35,-0.66,0.75,1.3
297.36,-0.42,0.64,1.47
297.37,-0.22,0.41,1.41
297.38,-0.14,0.22,1.16
297.39,-0.11,0.08,0.75
297.4,-0.23,0.02,0.23
297.41,-0.36,-0.01,-0.23
297.42,-0.56,0.08,-0.49
297.43,-0.7,0.18,-0.59
297.44,-0.74,0.23,-0.57
297.45,-0.72,0.28,-0.36
297.46,-0.6,0.29,-0.09
297.471,-0.54,0.24,0.06
297.48,-0.53,0.16,0.09
297.491,-0.49,0.09,0.13
297.501,-0.51,0.04,0.13
297.511,-0.57,-0.05,0.08
297.521,-0.57,-0.12,0.06
297.531,-0.6,-0.07,0.13
297.541,-0.61,-0.07,0.17
297.551,-0.61,-0.08,0.27
297.561,-0.52,-0.08,0.4
297.571,-0.43,-0.14,0.47
297.581,-0.41,-0.26,0.42
297.592,-0.49,-0.4,0.33
297.601,-0.56,-0.53,0.21
297.612,-0.6,-0.58,0.17
297.622,-0.63,-0.58,0.18
297.632,-0.68,-0.57,0.12
297.642,-0.86,-0.63,-0.04
297.652,-0.99,-0.67,-0.39
297.662,-0.99,-0.44,-0.42
297.672,-0.95,-0.33,-0.35
297.682,-0.85,-0.28,-0.31
297.692,-0.79,-0.16,-0.16
297.702,-0.71,-0.07,0.0
297.713,-0.65,-0.02,0.12
297.722,-0.63,0.07,0.2
297.733,-0.61,0.14,0.19
297.743,-0.63,0.2,0.14
297.753,-0.64,0.25,0.05
297.763,-0.61,0.28,-0.03
297.773,-0.49,0.32,-0.0
297.783,-0.43,0.34,0.03
297.793,-0.35,0.29,0.03
297.803,-0.24,0.19,0.1
297.813,-0.09,0.13,0.22
297.823,0.1,0.09,0.25
297.834,0.24,0.04,0.25
297.843,0.38,-0.02,0.16
297.854,0.45,-0.08,0.02
297.864,0.53,-0.17,0.02
297.874,0.67,-0.29,0.13
297.884,0.8,-0.44,0.35
297.894,1.0,-0.54,0.67
297.904,1.27,-0.67,0.98
297.914,1.51,-0.75,1.23
297.924,1.68,-0.81,1.35
297.934,1.8,-0.89,1.27
297.944,1.77,-0.99,1.07
297.954,1.68,-1.08,0.7
297.964,1.5,-1.17,0.24
297.974,1.36,-1.23,-0.13
297.985,1.25,-1.26,-0.39
297.995,1.24,-1.35,-0.6
298.005,1.28,-1.41,-0.67
298.015,1.3,-1.41,-0.73
298.025,1.36,-1.34,-0.83
298.035,1.37,-1.2,-0.97
298.045,1.42,-1.06,-1.09
298.055,1.5,-0.91,-1.08
298.065,1.65,-0.78,-0.96
298.075,1.94,-0.68,-0.73
298.085,2.2,-0.54,-0.45
298.096,2.43,-0.43,-0.31
298.105,2.65,-0.33,-0.16
298.116,2.88,-0.13,-0.03
298.126,3.17,0.09,0.07
298.136,3.44,0.34,0.19
298.146,3.63,0.54,0.23
298.156,3.81,0.72,0.17
298.166,3.84,0.91,0.07
298.176,3.73,1.02,-0.13
298.186,3.64,1.05,-0.35
298.196,3.48,1.08,-0.39
298.206,3.34,1.1,-0.43
298.216,3.16,1.06,-0.49
298.226,2.92,0.95,-0.43
298.237,2.7,0.81,-0.27
298.247,2.49,0.67,-0.15
298.257,2.31,0.56,-0.01
298.267,2.08,0.47,0.06
298.277,1.85,0.35,0.1
298.287,1.59,0.17,0.13
298.297,1.33,-0.0,0.15
298.307,1.02,-0.17,0.13
298.317,0.75,-0.38,0.19
298.327,0.58,-0.57,0.21
298.337,0.42,-0.58,0.18
298.347,0.35,-0.59,0.2
298.358,0.38,-0.61,0.22
298.368,0.42,-0.53,0.22
298.378,0.51,-0.46,0.11
298.388,0.53,-0.4,-0.05
298.398,0.53,-0.37,-0.24
298.408,0.58,-0.41,-0.44
298.418,0.47,-0.44,-0.61
298.428,0.39,-0.53,-0.74
298.438,0.29,-0.62,-0.83
298.448,0.19,-0.63,-0.8
298.458,0.15,-0.63,-0.7
298.468,0.21,-0.67,-0.5
298.479,0.23,-0.73,-0.33
298.488,0.21,-0.73,-0.15
298.499,0.28,-0.66,0.03
298.509,0.32,-0.61,0.19
298.519,0.26,-0.54,0.18
298.529,0.28,-0.53,0.12
298.539,0.3,-0.45,0.18
298.549,0.32,-0.4,0.29
298.559,0.31,-0.32,0.37
298.569,0.06,-0.17,0.41
298.579,-0.35,-0.07,0.34
298.589,-0.81,0.01,0.32
298.599,-1.23,0.16,0.34
298.609,-1.62,0.25,0.43
298.62,-2.02,0.33,0.55
298.63,-2.27,0.41,0.63
298.64,-2.37,0.5,0.7
298.65,-2.27,0.63,0.76
298.66,-2.06,0.71,0.7
298.67,-1.92,0.72,0.54
298.68,-1.88,0.62,0.29
298.69,-1.8,0.53,0.15
298.7,-1.76,0.45,0.21
298.71,-1.74,0.3,0.34
298.72,-1.72,0.08,0.5
298.73,-1.78,-0.1,0.7
298.741,-1.83,-0.32,0.93
298.751,-1.84,-0.6,1.0
298.761,-1.86,-0.84,0.99
298.771,-1.88,-1.01,0.9
298.781,-1.81,-1.05,0.58
298.791,-1.7,-0.99,0.11
298.801,-1.68,-0.83,-0.3
298.811,-1.69,-0.68,-0.74
298.821,-1.6,-0.62,-1.11
298.831,-1.49,-0.44,-1.26
298.841,-1.37,-0.2,-1.33
298.851,-1.22,-0.03,-1.34
298.862,-0.96,0.08,-1.1
298.871,-0.61,0.26,-0.64
298.882,-0.27,0.41,-0.13
298.892,0.01,0.55,0.27
298.902,0.21,0.71,0.48
298.912,0.37,0.86,0.52
298.922,0.51,0.99,0.6
298.932,0.68,1.15,0.63
298.942,0.86,1.24,0.6
298.952,0.91,1.26,0.46
298.962,0.94,1.19,0.2
298.972,0.97,1.09,-0.01
298.982,1.07,0.93,-0.13
298.992,1.13,0.83,-0.2
299.003,1.17,0.75,-0.28
299.013,1.22,0.72,-0.38
299.023,1.19,0.75,-0.52
299.033,1.11,0.81,-0.64
299.043,1.03,0.89,-0.71
299.053,0.96,1.03,-0.72
299.063,0.93,1.13,-0.64
299.073,0.96,1.12,-0.35
299.083,1.16,0.97,0.18
299.093,1.41,0.77,0.8
299.103,1.58,0.5,1.29
299.114,1.62,0.24,1.51
299.124,1.63,-0.09,1.49
299.134,1.36,-0.35,1.23
299.144,0.94,-0.5,0.63
299.154,0.53,-0.58,0.04
299.164,0.24,-0.69,-0.42
299.174,0.02,-0.81,-0.72
299.184,-0.19,-0.82,-0.84
299.194,-0.29,-0.86,-0.89
299.204,-0.23,-0.79,-0.81
299.214,-0.13,-0.67,-0.6
299.224,0.07,-0.61,-0.42
299.234,0.4,-0.45,-0.25
299.245,0.63,-0.23,-0.14
299.255,0.89,-0.13,-0.08
299.265,0.95,-0.11,-0.08
299.275,0.97,-0.11,-0.22
299.285,0.96,-0.2,-0.31
299.295,0.85,-0.34,-0.34
299.305,0.77,-0.51,-0.34
299.315,0.56,-0.68,-0.36
299.325,0.45,-0.79,-0.34
299.335,0.38,-0.91,-0.24
299.345,0.33,-0.98,-0.24
299.355,0.22,-1.02,-0.41
299.365,0.14,-1.0,-0.62
299.375,0.12,-0.93,-0.63
299.386,0.15,-0.86,-0.65
299.396,0.21,-0.76,-0.67
299.406,0.29,-0.65,-0.67
299.416,0.34,-0.52,-0.71
299.426,0.35,-0.39,-0.7
299.436,0.39,-0.33,-0.6
299.446,0.53,-0.26,-0.42
299.456,0.72,-0.15,-0.2
299.466,0.82,-0.08,-0.08
299.476,0.77,-0.05,-0.01
299.487,0.71,0.02,0.07
299.496,0.65,0.06,0.12
299.507,0.56,0.08,0.14
299.517,0.43,0.13,0.17
299.527,0.41,0.1,0.15
299.537,0.39,0.07,0.17
299.547,0.44,-0.01,0.14
299.557,0.51,-0.08,0.15
299.567,0.54,-0.18,0.1
299.577,0.6,-0.38,0.04
299.587,0.64,-0.6,0.04
299.597,0.63,-0.82,-0.06
299.607,0.62,-1.08,-0.27
299.617,0.55,-1.35,-0.53
299.628,0.47,-1.45,-0.76
299.638,0.36,-1.51,-0.93
299.648,0.18,-1.52,-1.16
299.658,0.03,-1.59,-1.37
299.668,-0.21,-1.58,-1.67
299.678,-0.49,-1.56,-1.91
299.688,-0.77,-1.53,-2.06
299.698,-1.01,-1.48,-2.16
299.708,-1.16,-1.39,-2.09
299.718,-1.3,-1.24,-1.81
299.728,-1.43,-1.0,-1.41
299.738,-1.45,-0.73,-0.8
299.749,-1.33,-0.55,0.05
299.759,-1.14,-0.36,0.81
299.769,-0.98,-0.27,1.55
299.779,-0.96,-0.26,1.9
299.789,-1.0,-0.13,2.07
299.799,-0.99,0.02,2.2
299.809,-1.01,0.21,2.26
299.819,-1.15,0.4,2.33
299.829,-1.25,0.56,2.53
299.839,-1.5,0.8,2.68
299.849,-1.74,1.01,2.79
299.859,-2.01,1.15,2.81
299.869,-2.27,1.31,2.68
299.879,-2.38,1.49,2.57
299.89,-2.29,1.63,2.6
299.9,-2.17,1.78,2.7
299.91,-2.07,1.89,2.66
299.92,-1.99,1.93,2.45
299.93,-1.96,1.9,2.12
299.94,-1.96,1.81,1.79
299.95,-1.93,1.79,1.52
299.96,-1.86,1.74,1.37
299.97,-1.83,1.62,1.3
299.98,-1.78,1.42,1.22
299.99,-1.82,1.19,1.05
300.0,-1.86,0.95,0.81
300.011,-1.88,0.77,0.55
300.021,-1.96,0.61,0.3
300.031,-2.06,0.52,0.06
300.041,-2.11,0.48,-0.13
300.051,-2.03,0.45,-0.12
300.061,-2.0,0.45,-0.0
300.071,-1.91,0.43,0.18
300.081,-1.77,0.35,0.33
300.091,-1.63,0.29,0.4
300.101,-1.51,0.17,0.58
300.111,-1.38,-0.02,0.7
300.121,-1.25,-0.26,0.79
300.131,-1.2,-0.48,0.88
300.142,-1.15,-0.51,0.98
300.152,-1.08,-0.4,1.03
300.162,-1.09,-0.24,0.93
300.172,-1.12,-0.12,0.74
300.182,-1.07,-0.04,0.56
300.192,-0.99,0.01,0.41
300.202,-0.88,0.03,0.37
300.212,-0.7,0.02,0.37
300.222,-0.52,-0.02,0.34
300.232,-0.43,-0.1,0.32
300.242,-0.3,-0.23,0.28
300.253,-0.24,-0.34,0.21
300.262,-0.21,-0.41,0.12
300.273,-0.21,-0.48,-0.04
300.283,-0.27,-0.45,-0.17
300.293,-0.28,-0.48,-0.28
300.303,-0.24,-0.6,-0.38
300.313,-0.05,-0.65,-0.33
300.323,0.06,-0.69,-0.16
300.333,0.12,-0.76,-0.17
300.343,0.1,-0.84,-0.27
300.353,-0.02,-0.88,-0.39
300.363,-0.06,-0.89,-0.49
300.374,-0.09,-0.88,-0.44
300.383,-0.07,-0.84,-0.4
300.394,-0.04,-0.77,-0.4
300.404,0.01,-0.64,-0.38
300.414,0.08,-0.49,-0.37
300.424,0.11,-0.37,-0.4
300.434,0.17,-0.29,-0.45
300.444,0.3,-0.22,-0.38
300.454,0.5,-0.13,-0.25
300.464,0.72,-0.02,-0.19
300.474,0.88,0.08,-0.17
300.484,1.11,0.12,-0.22
300.494,1.24,0.13,-0.33
300.504,1.37,0.12,-0.37
