timestamp,ax,ay,az
258.016,-1.11,-1.62,0.02
258.026,-0.97,-1.58,0.07
258.037,-0.79,-1.52,0.11
258.047,-0.66,-1.39,0.1
258.057,-0.57,-1.31,0.06
258.067,-0.51,-1.28,0.02
258.077,-0.48,-1.22,0.02
258.087,-0.5,-1.13,0.05
258.097,-0.51,-1.04,0.05
258.107,-0.52,-0.86,0.05
258.117,-0.58,-0.67,0.04
258.127,-0.56,-0.54,0.05
258.137,-0.51,-0.39,0.15
258.147,-0.33,-0.2,0.26
258.158,-0.2,0.09,0.23
258.167,-0.18,0.29,0.04
258.178,-0.14,0.4,-0.16
258.188,-0.06,0.52,-0.27
258.198,0.12,0.59,-0.22
258.208,0.32,0.63,-0.13
258.218,0.46,0.68,-0.09
258.228,0.53,0.69,-0.12
258.238,0.65,0.7,-0.12
258.248,0.92,0.72,0.0
258.258,1.2,0.72,0.21
258.268,1.5,0.65,0.44
258.278,1.79,0.51,0.64
258.288,2.04,0.31,0.77
258.299,2.13,0.08,0.8
258.308,2.1,-0.16,0.68
258.319,2.02,-0.24,0.36
258.329,1.86,-0.23,-0.05
258.339,1.68,-0.22,-0.44
258.349,1.56,-0.13,-0.68
258.359,1.59,-0.1,-0.73
258.369,1.69,-0.08,-0.58
258.379,1.76,-0.11,-0.34
258.389,1.87,-0.17,-0.08
258.399,1.99,-0.15,0.15
258.409,2.1,-0.07,0.33
258.42,2.06,0.05,0.38
258.429,1.95,0.25,0.15
258.44,1.85,0.53,-0.21
258.45,1.77,0.77,-0.42
258.46,1.77,0.89,-0.33
258.47,1.76,1.0,-0.08
258.48,1.83,1.05,0.14
258.49,1.77,0.97,0.36
258.5,1.71,0.9,0.5
258.51,1.61,0.95,0.52
258.52,1.41,1.03,0.33
258.53,1.09,1.14,-0.02
258.541,0.77,1.21,-0.36
258.55,0.75,1.3,-0.49
258.561,1.01,1.52,-0.26
258.57,1.29,1.58,0.19
258.581,1.66,1.45,0.56
258.591,1.95,1.31,0.69
258.601,1.92,1.16,0.53
258.611,1.74,0.99,0.12
258.621,1.63,0.87,-0.19
258.631,1.5,0.75,-0.45
258.641,1.31,0.63,-0.73
258.651,1.16,0.66,-0.89
258.661,1.09,0.57,-0.97
258.671,1.1,0.32,-0.92
258.682,1.15,0.12,-0.74
258.692,1.22,-0.1,-0.53
258.702,1.21,-0.31,-0.44
258.712,1.18,-0.36,-0.46
258.722,1.14,-0.38,-0.53
258.732,1.05,-0.45,-0.53
258.742,0.9,-0.55,-0.52
258.752,0.82,-0.6,-0.59
258.762,0.7,-0.59,-0.62
258.772,0.57,-0.6,-0.56
258.782,0.56,-0.67,-0.38
258.792,0.59,-0.75,-0.07
258.803,0.7,-0.71,0.19
258.813,0.63,-0.77,0.27
258.823,0.58,-0.8,0.23
258.833,0.58,-0.61,0.18
258.843,0.63,-0.43,0.08
258.853,0.57,-0.35,-0.09
258.863,0.48,-0.23,-0.3
258.873,0.41,-0.11,-0.4
258.883,0.38,-0.01,-0.35
258.893,0.3,0.07,-0.33
258.903,0.15,0.1,-0.42
258.913,0.05,0.14,-0.43
258.924,-0.08,0.19,-0.24
258.933,-0.19,0.1,-0.06
258.944,-0.35,-0.01,0.14
258.954,-0.64,-0.08,0.34
258.964,-0.91,-0.25,0.43
258.974,-1.19,-0.35,0.53
258.984,-1.4,-0.36,0.72
258.994,-1.55,-0.33,0.94
259.004,-1.69,-0.3,1.0
259.014,-1.77,-0.27,0.91
259.024,-1.84,-0.22,0.81
259.034,-1.75,-0.17,0.69
259.044,-1.59,-0.06,0.64
259.054,-1.45,0.05,0.57
259.065,-1.37,0.22,0.44
259.075,-1.4,0.2,0.28
259.085,-1.42,0.08,0.24
259.095,-1.37,-0.05,0.39
259.105,-1.31,-0.18,0.61
259.115,-1.31,-0.34,0.76
259.125,-1.38,-0.51,0.82
259.135,-1.5,-0.64,0.77
259.145,-1.59,-0.69,0.6
259.155,-1.66,-0.68,0.34
259.165,-1.68,-0.62,0.22
259.175,-1.64,-0.48,0.08
259.186,-1.53,-0.18,0.0
259.195,-1.4,0.11,-0.0
259.206,-1.27,0.29,-0.02
259.216,-1.19,0.57,-0.01
259.226,-1.16,0.83,-0.08
259.236,-1.18,0.99,-0.19
259.246,-1.21,1.11,-0.12
259.256,-1.23,1.29,-0.13
259.266,-1.28,1.47,-0.27
259.276,-1.38,1.62,-0.36
259.286,-1.39,1.72,-0.42
259.296,-1.26,1.78,-0.25
259.306,-1.08,1.87,-0.01
259.316,-0.99,1.8,0.09
259.327,-0.98,1.6,0.08
259.337,-1.05,1.4,0.05
259.347,-1.08,1.25,-0.07
259.357,-1.14,1.04,-0.14
259.367,-1.23,0.79,-0.15
259.377,-1.2,0.63,-0.05
259.387,-1.1,0.58,0.2
259.397,-0.88,0.47,0.42
259.407,-0.74,0.25,0.6
259.417,-0.74,-0.02,0.58
259.428,-0.76,-0.24,0.41
259.437,-0.78,-0.38,0.2
259.448,-0.8,-0.42,0.08
259.458,-0.81,-0.42,-0.05
259.468,-0.94,-0.43,-0.26
259.478,-1.09,-0.49,-0.46
259.488,-1.17,-0.57,-0.56
259.498,-1.13,-0.65,-0.48
259.508,-1.02,-0.73,-0.26
259.518,-0.92,-0.83,-0.15
259.528,-0.88,-0.81,-0.25
259.538,-0.92,-0.71,-0.47
259.548,-0.96,-0.67,-0.68
259.558,-0.84,-0.62,-0.76
259.569,-0.76,-0.53,-0.73
259.578,-0.71,-0.5,-0.7
259.589,-0.7,-0.52,-0.61
259.599,-0.72,-0.56,-0.47
259.609,-0.69,-0.59,-0.28
259.619,-0.59,-0.55,-0.14
259.629,-0.59,-0.46,-0.08
259.639,-0.57,-0.43,-0.05
259.649,-0.59,-0.39,0.06
259.659,-0.58,-0.33,0.08
259.669,-0.58,-0.27,0.09
259.679,-0.56,-0.2,0.15
259.69,-0.52,-0.18,0.28
259.699,-0.52,-0.24,0.36
259.71,-0.49,-0.31,0.44
259.72,-0.5,-0.36,0.5
259.73,-0.53,-0.38,0.43
259.74,-0.52,-0.31,0.31
259.75,-0.53,-0.2,0.26
259.76,-0.44,-0.07,0.32
259.77,-0.22,0.01,0.51
259.78,0.01,0.06,0.65
259.79,0.2,0.12,0.67
259.8,0.41,0.21,0.6
259.81,0.64,0.31,0.48
259.82,0.79,0.37,0.32
259.831,0.92,0.34,0.16
259.841,1.05,0.28,0.12
259.851,1.15,0.15,0.13
259.861,1.24,-0.04,0.15
259.871,1.34,-0.25,0.17
259.881,1.39,-0.45,0.21
259.891,1.4,-0.71,0.18
259.901,1.3,-0.91,0.02
259.911,1.27,-1.04,-0.25
259.921,1.29,-1.01,-0.49
259.931,1.41,-0.86,-0.66
259.941,1.62,-0.65,-0.67
259.952,1.98,-0.47,-0.51
259.961,2.27,-0.3,-0.32
259.972,2.5,-0.18,-0.16
259.982,2.75,-0.06,0.08
259.992,2.82,0.11,0.24
260.002,2.59,0.22,0.07
260.012,2.22,0.23,-0.3
260.022,1.91,0.42,-0.56
260.032,1.87,0.84,-0.58
260.042,1.91,1.34,-0.43
260.052,1.95,1.61,-0.2
260.062,2.0,1.76,0.18
260.073,2.25,1.79,0.77
260.082,2.48,1.59,1.15
260.093,2.47,1.35,1.05
260.103,2.27,1.18,0.59
260.113,1.93,1.05,-0.12
260.123,1.46,1.1,-0.8
260.133,1.19,1.21,-1.28
260.143,1.06,1.34,-1.41
260.153,1.01,1.41,-1.32
260.163,1.01,1.32,-1.05
260.173,1.19,1.18,-0.6
260.183,1.41,0.98,-0.24
260.193,1.51,0.86,-0.08
260.203,1.62,0.85,-0.08
260.214,1.47,0.84,-0.28
260.224,1.22,0.72,-0.57
260.234,1.03,0.63,-0.81
260.244,0.78,0.51,-0.88
260.254,0.59,0.22,-0.99
260.264,0.39,0.02,-1.11
260.274,0.19,-0.19,-1.16
260.284,0.17,-0.49,-1.06
260.294,0.24,-0.7,-0.82
260.304,0.27,-0.84,-0.62
260.314,0.35,-0.95,-0.45
260.324,0.47,-0.91,-0.39
260.335,0.61,-0.74,-0.3
260.345,0.68,-0.63,-0.34
260.355,0.71,-0.49,-0.44
260.365,0.65,-0.41,-0.51
260.375,0.62,-0.41,-0.33
260.385,0.69,-0.45,0.05
260.395,0.69,-0.58,0.17
260.405,0.52,-0.56,0.05
260.415,0.46,-0.42,-0.09
260.425,0.42,-0.26,-0.12
260.435,0.39,-0.12,-0.04
260.445,0.38,0.01,0.12
260.456,0.3,0.01,0.12
260.466,0.29,-0.02,0.01
260.476,0.15,0.1,-0.12
260.486,-0.01,0.17,-0.29
260.496,-0.12,0.09,-0.32
260.506,-0.35,-0.03,-0.42
260.516,-0.59,-0.13,-0.49
260.526,-0.77,-0.24,-0.45
260.536,-1.03,-0.3,-0.46
260.546,-1.27,-0.29,-0.43
260.556,-1.46,-0.31,-0.18
260.566,-1.52,-0.37,0.2
260.577,-1.47,-0.45,0.59
260.586,-1.48,-0.5,0.97
260.597,-1.57,-0.64,1.11
260.607,-1.69,-0.82,0.98
260.617,-1.8,-0.88,0.71
260.627,-1.88,-0.89,0.47
260.637,-1.99,-0.95,0.23
260.647,-2.08,-0.92,-0.05
260.657,-2.1,-0.78,-0.21
260.667,-1.97,-0.5,-0.09
260.677,-1.76,-0.25,0.21
260.687,-1.44,-0.18,0.46
260.698,-1.26,-0.18,0.67
260.707,-1.14,-0.2,0.89
260.718,-0.98,-0.25,1.11
260.728,-0.84,-0.11,1.19
260.738,-0.7,0.15,1.24
260.748,-0.5,0.44,1.15
260.758,-0.43,0.78,0.9
260.768,-0.42,1.15,0.51
260.778,-0.29,1.56,0.22
260.788,-0.22,1.95,-0.03
260.798,-0.16,2.23,-0.21
260.808,-0.19,2.41,-0.38
260.818,-0.39,2.45,-0.54
260.828,-0.6,2.46,-0.65
260.839,-0.73,2.53,-0.64
260.848,-0.86,2.6,-0.57
260.859,-0.99,2.56,-0.37
260.869,-1.06,2.4,-0.14
260.879,-1.16,2.07,-0.1
260.889,-1.35,1.53,-0.08
260.899,-1.46,0.94,-0.02
260.909,-1.48,0.4,0.06
260.919,-1.39,0.02,0.12
260.929,-1.31,-0.25,0.05
260.939,-1.34,-0.42,-0.21
260.949,-1.28,-0.51,-0.49
260.96,-1.1,-0.61,-0.62
260.969,-0.95,-0.74,-0.57
260.98,-0.76,-0.83,-0.47
260.99,-0.57,-0.83,-0.41
261.0,-0.45,-0.58,-0.48
261.01,-0.38,-0.34,-0.7
261.02,-0.33,-0.28,-0.85
261.03,-0.39,-0.39,-0.93
261.04,-0.53,-0.56,-0.99
261.05,-0.67,-0.77,-0.86
261.06,-0.92,-1.03,-0.55
261.07,-1.11,-1.18,-0.14
261.08,-1.27,-1.2,0.11
261.09,-1.32,-1.15,0.24
261.101,-1.33,-1.05,0.36
261.111,-1.31,-1.0,0.34
261.121,-1.37,-0.87,0.17
261.131,-1.4,-0.68,0.08
261.141,-1.38,-0.58,-0.0
261.151,-1.34,-0.45,-0.01
261.161,-1.32,-0.35,-0.03
261.171,-1.29,-0.34,0.04
261.181,-1.26,-0.3,0.07
261.191,-1.13,-0.25,0.12
261.201,-1.05,-0.23,0.23
261.211,-1.06,-0.24,0.23
261.222,-1.14,-0.26,0.12
261.232,-1.13,-0.23,0.15
261.242,-0.98,-0.15,0.31
261.252,-0.8,-0.07,0.57
261.262,-0.56,0.0,0.77
261.272,-0.38,0.09,0.77
261.282,-0.22,0.16,0.79
261.292,0.03,0.31,0.84
261.302,0.36,0.45,0.9
261.312,0.62,0.54,0.91
261.322,0.79,0.59,0.78
261.332,1.0,0.61,0.59
261.343,1.16,0.75,0.41
261.352,1.35,0.82,0.27
261.363,1.52,0.65,0.24
261.373,1.76,0.44,0.3
261.383,1.98,0.21,0.31
261.393,2.02,-0.07,0.16
261.403,1.91,-0.4,-0.05
261.413,1.62,-0.75,-0.3
261.423,1.35,-1.07,-0.44
261.433,1.16,-1.31,-0.4
261.443,1.1,-1.42,-0.27
261.453,1.2,-1.36,-0.08
261.464,1.32,-1.28,0.19
261.473,1.41,-1.17,0.32
261.484,1.55,-1.14,0.37
261.494,1.73,-1.04,0.55
261.504,1.99,-0.99,0.78
261.514,2.22,-0.87,0.93
261.524,2.31,-0.72,0.98
261.534,2.29,-0.55,0.86
261.544,2.17,-0.41,0.55
261.554,2.05,-0.23,0.29
261.564,1.99,-0.17,0.19
261.574,2.05,-0.15,0.13
261.584,2.28,0.06,0.14
261.594,2.6,0.48,0.18
261.605,2.74,0.84,0.05
261.615,2.77,1.13,-0.19
261.625,2.64,1.41,-0.35
261.635,2.37,1.52,-0.46
261.645,2.07,1.52,-0.48
261.655,1.79,1.64,-0.21
261.665,1.6,1.66,0.15
261.675,1.55,1.67,0.43
261.685,1.52,1.69,0.56
261.695,1.55,1.57,0.39
261.705,1.64,1.48,0.16
261.715,1.73,1.42,-0.13
261.726,1.81,1.31,-0.4
261.735,1.77,1.17,-0.65
261.746,1.63,0.98,-0.87
261.756,1.46,0.73,-0.91
261.766,1.31,0.49,-0.73
261.776,1.17,0.18,-0.58
261.786,1.08,-0.12,-0.42
261.796,1.02,-0.3,-0.27
261.806,1.05,-0.46,-0.22
261.816,1.04,-0.54,-0.26
261.826,1.0,-0.5,-0.41
261.836,0.99,-0.57,-0.6
261.847,0.98,-0.64,-0.7
261.856,0.99,-0.76,-0.73
261.867,0.95,-0.85,-0.75
261.877,0.84,-0.96,-0.74
261.887,0.79,-0.92,-0.61
261.897,0.75,-0.77,-0.46
261.907,0.66,-0.86,-0.47
261.917,0.69,-0.77,-0.2
261.927,0.87,0.01,0.26
261.937,0.9,-0.4,-0.06
261.947,1.01,-0.24,0.13
261.957,0.88,-0.05,0.19
261.967,0.94,0.02,0.11
261.977,0.84,0.27,-0.02
261.988,0.75,0.45,-0.22
261.998,0.65,0.57,-0.4
262.008,0.49,0.58,-0.48
262.018,0.28,0.56,-0.44
262.028,0.17,0.48,-0.29
262.038,0.04,0.39,-0.05
262.048,-0.2,0.25,0.04
262.058,-0.49,0.13,0.05
262.068,-0.76,0.1,0.02
262.078,-0.99,0.11,-0.06
262.088,-1.18,0.25,-0.05
262.098,-1.41,0.28,-0.04
262.109,-1.58,0.26,0.0
262.118,-1.69,0.23,0.15
262.129,-1.61,0.12,0.41
262.139,-1.57,0.1,0.78
262.149,-1.6,0.01,0.9
262.159,-1.5,-0.05,0.96
262.169,-1.37,-0.06,0.98
262.179,-1.32,-0.06,0.82
262.189,-1.28,-0.13,0.65
262.199,-1.17,-0.18,0.6
262.209,-1.11,-0.24,0.69
262.219,-1.08,-0.38,0.82
262.23,-1.17,-0.53,0.88
262.239,-1.26,-0.68,0.9
262.25,-1.29,-0.73,0.99
262.26,-1.26,-0.7,1.1
262.27,-1.31,-0.54,1.1
262.28,-1.42,-0.27,0.93
262.29,-1.55,-0.01,0.62
262.3,-1.65,0.4,0.28
262.31,-1.72,0.89,0.1
262.32,-1.81,1.28,0.09
262.33,-1.91,1.56,0.15
262.34,-1.97,1.78,0.38
262.351,-1.86,1.8,0.72
262.36,-1.65,1.77,1.24
262.371,-1.44,1.75,1.52
262.381,-1.34,1.76,1.28
262.391,-1.5,1.83,0.64
262.401,-1.63,1.96,-0.06
262.411,-1.82,2.03,-0.65
262.421,-2.0,2.05,-1.06
262.431,-2.09,1.84,-1.14
262.441,-2.16,1.43,-0.86
262.451,-2.12,0.95,-0.44
262.461,-2.06,0.5,0.04
262.471,-2.07,0.1,0.29
262.481,-2.03,-0.14,0.38
262.492,-1.88,-0.25,0.37
262.502,-1.63,-0.27,0.32
262.512,-1.41,-0.31,0.23
262.522,-1.24,-0.34,0.07
262.532,-1.13,-0.35,-0.05
262.542,-1.03,-0.36,-0.09
262.552,-0.89,-0.35,-0.04
262.562,-0.82,-0.48,-0.03
262.572,-0.89,-0.66,-0.01
262.582,-0.95,-0.77,-0.01
262.592,-0.99,-0.86,0.04
262.602,-1.06,-0.93,0.18
262.613,-1.11,-1.07,0.36
262.622,-1.16,-1.18,0.45
262.633,-1.16,-1.24,0.49
262.643,-1.13,-1.25,0.5
262.653,-1.13,-1.22,0.51
262.663,-1.17,-1.14,0.36
262.673,-1.19,-0.99,0.21
262.683,-1.19,-0.94,0.17
262.693,-1.09,-0.92,0.24
262.703,-0.92,-0.86,0.3
262.713,-0.77,-0.83,0.29
262.723,-0.56,-0.76,0.23
262.733,-0.4,-0.68,0.04
262.743,-0.36,-0.48,-0.25
262.754,-0.33,-0.33,-0.48
262.764,-0.21,-0.17,-0.66
262.774,-0.18,0.12,-0.74
262.784,-0.13,0.35,-0.59
262.794,0.11,0.55,-0.3
262.804,0.3,0.71,-0.07
262.814,0.42,0.84,0.09
262.824,0.67,0.86,0.28
262.834,0.86,0.82,0.34
262.844,0.93,0.81,0.35
262.854,0.99,0.68,0.44
262.864,1.03,0.49,0.48
262.875,1.06,0.28,0.56
262.884,1.05,0.11,0.67
262.895,1.05,-0.06,0.75
262.905,1.01,-0.2,0.76
262.915,1.05,-0.39,0.75
262.925,1.15,-0.49,0.77
262.935,1.3,-0.51,0.78
262.945,1.44,-0.5,0.75
262.955,1.53,-0.45,0.58
262.965,1.62,-0.38,0.29
262.975,1.62,-0.24,-0.04
262.985,1.48,-0.14,-0.34
262.995,1.35,-0.13,-0.65
263.005,1.21,-0.14,-0.68
