timestamp,ax,ay,az
97.814,1.47,0.81,-0.35
97.824,1.57,0.74,-0.19
97.835,1.52,0.56,-0.14
97.844,1.36,0.28,-0.17
97.855,1.17,0.06,-0.2
97.865,0.97,-0.14,-0.29
97.875,0.73,-0.29,-0.48
97.885,0.5,-0.45,-0.72
97.895,0.39,-0.59,-0.88
97.905,0.37,-0.64,-0.91
97.915,0.4,-0.65,-0.89
97.925,0.54,-0.61,-0.73
97.935,0.72,-0.67,-0.55
97.945,0.83,-0.79,-0.48
97.955,0.88,-0.91,-0.39
97.965,0.88,-1.04,-0.3
97.976,0.88,-1.17,-0.27
97.986,0.9,-1.21,-0.34
97.996,0.99,-1.12,-0.55
98.006,1.07,-0.94,-0.74
98.016,1.36,-0.73,-0.89
98.026,1.59,-0.54,-0.99
98.036,1.83,-0.38,-0.99
98.046,2.14,-0.16,-0.98
98.056,2.34,-0.03,-0.92
98.066,2.53,0.11,-0.86
98.076,2.68,0.29,-0.83
98.086,2.69,0.42,-0.81
98.097,2.69,0.5,-0.88
98.106,2.65,0.55,-0.97
98.117,2.68,0.61,-0.92
98.127,2.81,0.64,-0.85
98.137,2.88,0.73,-0.8
98.147,2.85,0.82,-0.8
98.157,2.87,0.87,-0.84
98.167,2.92,0.91,-0.74
98.177,2.94,0.92,-0.53
98.187,2.9,0.89,-0.22
98.197,2.87,0.75,0.07
98.207,2.79,0.57,0.26
98.218,2.64,0.39,0.31
98.227,2.44,0.19,0.2
98.238,2.25,0.0,0.08
98.248,1.99,-0.23,-0.01
98.258,1.75,-0.4,-0.12
98.268,1.54,-0.5,-0.15
98.278,1.38,-0.56,-0.14
98.288,1.26,-0.64,-0.23
98.298,1.11,-0.75,-0.41
98.308,0.98,-0.85,-0.58
98.318,0.96,-0.88,-0.67
98.328,0.93,-0.87,-0.63
98.338,0.91,-0.98,-0.55
98.348,0.82,-1.05,-0.58
98.359,0.71,-1.13,-0.66
98.369,0.6,-1.16,-0.69
98.379,0.51,-1.12,-0.73
98.389,0.49,-1.06,-0.66
98.399,0.51,-0.99,-0.57
98.409,0.48,-0.92,-0.5
98.419,0.46,-0.86,-0.43
98.429,0.46,-0.76,-0.32
98.439,0.47,-0.65,-0.16
98.449,0.49,-0.61,0.04
98.46,0.55,-0.55,0.1
98.469,0.5,-0.49,0.09
98.48,0.34,-0.5,-0.05
98.49,0.14,-0.43,-0.26
98.5,-0.09,-0.34,-0.25
98.51,-0.19,-0.24,-0.07
98.52,-0.19,-0.12,0.28
98.53,-0.24,0.01,0.62
98.54,-0.21,0.08,0.8
98.55,-0.19,0.13,0.78
98.56,-0.15,0.25,0.62
98.57,-0.18,0.39,0.51
98.58,-0.14,0.47,0.48
98.59,0.01,0.63,0.35
98.601,-0.02,0.77,0.17
98.611,-0.05,0.81,0.06
98.621,0.19,0.77,0.21
98.631,0.29,0.53,0.49
98.641,0.23,0.22,0.74
98.651,0.09,-0.21,0.84
98.661,-0.28,-0.69,0.8
98.671,-0.69,-1.11,0.6
98.681,-1.17,-1.48,0.39
98.691,-1.42,-1.7,0.26
98.701,-1.53,-1.83,0.2
98.711,-1.53,-1.8,0.1
98.721,-1.46,-1.6,-0.1
98.731,-1.46,-1.43,-0.45
98.742,-1.42,-1.28,-0.83
98.751,-1.41,-1.11,-1.13
98.762,-1.33,-0.9,-1.26
98.772,-1.39,-0.73,-1.3
98.782,-1.49,-0.58,-1.17
98.792,-1.69,-0.51,-0.92
98.802,-1.82,-0.39,-0.53
98.812,-1.96,-0.28,-0.1
98.822,-2.09,-0.13,0.47
98.832,-2.11,0.14,1.1
98.842,-2.01,0.44,1.67
98.852,-1.8,0.81,2.25
98.863,-1.47,1.04,2.68
98.873,-1.14,1.26,2.79
98.883,-1.04,1.46,2.49
98.893,-1.14,1.53,1.82
98.903,-1.36,1.53,1.08
98.913,-1.48,1.58,0.52
98.923,-1.52,1.75,0.15
98.933,-1.6,1.81,-0.07
98.943,-1.7,1.79,-0.26
98.953,-1.87,1.73,-0.41
98.963,-1.91,1.69,-0.34
98.973,-1.86,1.69,-0.21
98.983,-1.73,1.85,-0.03
98.994,-1.54,2.05,0.11
99.004,-1.42,2.16,0.12
99.014,-1.39,2.19,0.12
99.024,-1.35,2.15,0.23
99.034,-1.3,2.09,0.38
99.044,-1.14,2.03,0.48
99.054,-1.1,1.84,0.52
99.064,-1.18,1.46,0.5
99.074,-1.3,1.21,0.38
99.084,-1.47,0.94,0.28
99.094,-1.58,0.73,0.22
99.104,-1.58,0.52,0.29
99.114,-1.54,0.39,0.33
99.125,-1.54,0.32,0.36
99.134,-1.45,0.22,0.42
99.145,-1.27,0.14,0.57
99.155,-1.17,0.04,0.71
99.165,-1.12,-0.06,0.7
99.175,-1.1,-0.2,0.71
99.185,-1.12,-0.29,0.7
99.195,-1.19,-0.28,0.68
99.205,-1.24,-0.37,0.63
99.215,-1.21,-0.45,0.63
99.225,-1.29,-0.55,0.69
99.235,-1.24,-0.64,0.76
99.246,-1.17,-0.67,0.73
99.255,-1.17,-0.81,0.53
99.266,-1.23,-0.89,0.33
99.276,-1.21,-0.96,0.24
99.286,-1.19,-0.97,0.19
99.296,-1.24,-0.98,0.19
99.306,-1.3,-0.97,0.23
99.316,-1.42,-0.88,0.35
99.326,-1.53,-0.91,0.37
99.336,-1.65,-0.93,0.26
99.346,-1.55,-0.91,0.37
99.356,-1.49,-0.88,0.54
99.366,-1.19,-0.68,0.93
99.377,-1.08,-0.56,1.08
99.387,-0.98,-0.45,1.14
99.397,-0.93,-0.49,1.08
99.407,-0.78,-0.32,1.17
99.417,-0.44,-0.06,1.28
99.427,-0.17,0.15,1.29
99.437,0.21,0.39,1.27
99.447,0.62,0.65,1.17
99.457,1.02,0.92,1.03
99.467,1.36,1.18,0.83
99.477,1.6,1.27,0.56
99.487,1.7,1.24,0.23
99.497,1.63,1.19,0.03
99.508,1.53,1.09,0.02
99.517,1.42,0.98,0.2
99.528,1.28,0.74,0.43
99.538,1.23,0.46,0.57
99.548,1.15,0.22,0.63
99.558,1.01,-0.04,0.58
99.568,1.03,-0.34,0.52
99.578,1.04,-0.61,0.38
99.588,1.07,-0.84,0.13
99.598,1.02,-1.01,-0.2
99.608,0.94,-1.13,-0.51
99.618,0.93,-1.24,-0.73
99.629,0.82,-1.36,-0.8
99.639,0.78,-1.45,-0.74
99.649,0.81,-1.45,-0.54
99.659,0.89,-1.46,-0.25
99.669,0.97,-1.41,-0.07
99.679,1.21,-1.31,-0.01
99.689,1.51,-1.1,0.0
99.699,1.74,-0.85,-0.15
99.709,1.87,-0.66,-0.47
99.719,1.89,-0.66,-0.85
99.729,1.77,-0.8,-1.18
99.739,1.62,-0.93,-1.36
99.749,1.6,-1.01,-1.48
99.759,1.57,-0.89,-1.57
99.77,1.54,-0.69,-1.58
99.78,1.45,-0.61,-1.41
99.79,1.42,-0.54,-1.23
99.8,1.54,-0.39,-1.03
99.81,1.86,-0.01,-0.86
99.82,2.21,0.33,-0.75
99.83,2.32,0.66,-0.61
99.84,2.29,0.94,-0.51
99.85,2.27,1.06,-0.51
99.86,2.28,1.13,-0.55
99.87,2.25,1.15,-0.65
99.88,2.17,1.23,-0.73
99.891,2.18,1.31,-0.73
99.901,2.26,1.39,-0.66
99.911,2.45,1.5,-0.67
99.921,2.65,1.5,-0.81
99.931,2.67,1.45,-1.01
99.941,2.57,1.28,-1.15
99.951,2.36,1.05,-1.13
99.961,2.17,0.82,-0.94
99.971,2.06,0.59,-0.74
99.981,1.77,0.25,-0.69
99.991,1.4,-0.01,-0.7
100.001,1.06,-0.17,-0.7
100.012,0.78,-0.35,-0.67
100.021,0.55,-0.53,-0.58
100.032,0.34,-0.64,-0.47
100.042,0.23,-0.73,-0.4
100.052,0.23,-0.77,-0.41
100.062,0.26,-0.69,-0.42
100.072,0.31,-0.73,-0.42
100.082,0.33,-0.87,-0.48
100.092,0.27,-1.04,-0.59
100.102,0.17,-1.11,-0.68
100.112,0.08,-1.18,-0.72
100.122,0.07,-1.17,-0.71
100.132,0.01,-1.14,-0.63
100.142,-0.02,-1.14,-0.51
100.153,0.02,-0.94,-0.34
100.163,0.06,-0.72,-0.23
100.173,0.18,-0.59,-0.14
100.183,0.29,-0.54,-0.1
100.193,0.37,-0.46,0.0
100.203,0.49,-0.45,0.14
100.213,0.55,-0.46,0.08
100.223,0.42,-0.44,-0.12
100.234,0.17,-0.48,-0.3
100.243,0.01,-0.48,-0.39
100.253,-0.12,-0.43,-0.36
100.264,-0.26,-0.37,-0.25
100.274,-0.31,-0.33,-0.2
100.283,-0.35,-0.3,-0.17
100.294,-0.42,-0.22,-0.09
100.304,-0.44,-0.06,0.03
100.314,-0.39,0.11,0.37
100.324,-0.33,0.23,0.65
100.334,-0.39,0.31,0.75
100.344,-0.49,0.29,0.76
100.354,-0.57,0.24,0.78
100.364,-0.63,0.2,0.81
100.374,-0.7,0.17,0.85
100.384,-0.73,0.2,0.96
100.395,-0.72,0.25,0.98
100.404,-0.73,0.29,0.92
100.415,-0.85,0.17,0.9
100.425,-0.9,0.13,0.98
100.435,-0.82,0.02,1.01
100.445,-0.88,-0.1,1.01
100.455,-1.04,-0.2,0.87
100.465,-1.17,-0.31,0.67
100.475,-1.2,-0.42,0.36
100.485,-1.26,-0.43,0.08
100.495,-1.3,-0.37,-0.09
100.505,-1.25,-0.29,-0.14
100.516,-1.13,-0.19,-0.03
100.525,-0.97,-0.03,0.2
100.536,-0.9,0.11,0.49
100.546,-0.83,0.21,0.82
100.556,-0.64,0.26,1.21
100.566,-0.74,0.26,1.36
100.576,-0.99,0.32,1.35
100.586,-1.31,0.35,1.05
100.596,-1.78,0.46,0.65
100.606,-2.12,0.63,0.4
100.616,-2.23,0.81,0.42
100.626,-2.28,1.03,0.6
100.636,-2.28,1.24,0.81
100.646,-2.31,1.39,1.05
100.657,-2.4,1.55,1.07
100.666,-2.42,1.71,0.81
100.677,-2.63,1.91,0.36
100.687,-2.88,2.09,-0.07
100.697,-3.09,2.28,-0.36
100.707,-3.19,2.5,-0.37
100.717,-3.17,2.69,-0.03
100.727,-2.69,2.89,0.59
100.737,-1.82,2.97,1.39
100.747,-0.92,2.93,2.09
100.757,-0.3,2.82,2.53
100.767,0.07,2.5,2.63
100.778,0.13,2.03,2.44
100.788,-0.09,1.52,2.48
100.798,-0.13,1.05,2.41
100.808,-0.11,0.62,2.06
100.818,-0.32,0.28,1.62
100.828,-0.64,-0.07,0.95
100.838,-0.98,-0.45,0.25
100.848,-1.18,-0.78,-0.42
100.858,-1.36,-0.91,-0.91
100.868,-1.33,-0.85,-1.23
100.878,-1.24,-0.77,-1.32
100.888,-1.29,-0.76,-1.17
100.898,-1.29,-0.85,-0.81
100.908,-1.26,-1.03,-0.31
100.919,-1.18,-1.24,0.26
100.929,-1.12,-1.35,0.76
100.939,-0.95,-1.29,1.05
100.949,-0.67,-1.08,1.26
100.959,-0.51,-0.77,1.18
100.969,-0.52,-0.54,0.82
100.979,-0.47,-0.31,0.49
100.989,-0.43,-0.13,0.43
100.999,-0.24,-0.03,0.54
101.009,-0.05,0.05,0.75
101.019,0.12,0.03,0.99
101.029,0.18,-0.21,1.1
101.039,0.19,-0.41,1.06
101.049,0.3,-0.41,1.02
101.06,0.39,-0.3,0.91
101.07,0.4,-0.23,0.67
101.08,0.36,0.01,0.48
101.09,0.41,0.12,0.32
101.1,0.55,0.06,0.11
101.11,0.59,0.01,0.02
101.12,0.7,-0.07,0.07
101.13,0.9,-0.13,0.27
101.14,1.05,-0.11,0.41
101.15,0.94,-0.06,0.34
101.161,0.68,-0.02,-0.04
101.17,0.48,0.02,-0.52
101.181,0.32,0.01,-0.89
101.191,0.46,0.05,-0.98
101.201,0.76,0.13,-0.89
101.211,1.0,0.18,-0.72
101.221,1.23,0.05,-0.61
101.231,1.36,-0.17,-0.6
101.241,1.41,-0.38,-0.65
101.251,1.43,-0.56,-0.66
101.261,1.44,-0.68,-0.65
101.271,1.38,-0.84,-0.66
101.281,1.28,-0.99,-0.73
101.291,1.24,-1.08,-0.77
101.302,1.11,-1.19,-0.83
101.312,1.03,-1.34,-0.8
101.322,1.07,-1.4,-0.68
101.332,1.18,-1.35,-0.53
101.342,1.14,-1.36,-0.5
101.352,1.11,-1.46,-0.49
101.362,1.16,-1.5,-0.34
101.372,1.25,-1.51,-0.18
101.382,1.28,-1.56,-0.09
101.392,1.36,-1.54,-0.13
101.402,1.34,-1.54,-0.42
101.412,1.1,-1.63,-0.87
101.423,0.95,-1.5,-1.12
101.432,1.34,-0.86,-1.02
101.443,2.0,-0.04,-0.74
101.453,2.54,0.62,-0.69
101.463,3.0,1.2,-1.01
101.473,3.37,1.75,-1.33
101.483,3.76,2.14,-1.36
101.493,4.03,2.36,-1.18
101.503,4.08,2.48,-1.02
101.513,3.98,2.51,-1.02
101.523,3.69,2.36,-1.23
101.533,3.29,2.17,-1.45
101.543,2.87,2.05,-1.6
101.554,2.67,1.97,-1.6
101.564,2.69,1.98,-1.37
101.574,2.72,2.0,-1.05
101.584,2.76,2.01,-0.7
101.594,2.63,2.08,-0.38
101.604,2.42,2.02,-0.09
101.614,2.31,1.92,0.37
101.624,2.27,1.75,0.77
101.634,1.97,1.53,1.0
101.644,1.6,1.16,1.1
101.654,1.29,0.7,1.08
101.665,0.96,0.21,0.97
101.674,0.68,-0.23,0.79
101.685,0.45,-0.56,0.6
101.695,0.3,-0.77,0.44
101.705,0.27,-0.96,0.37
101.715,0.26,-1.03,0.34
101.725,0.29,-1.03,0.43
101.735,0.4,-1.08,0.52
101.745,0.42,-1.07,0.51
101.755,0.42,-1.04,0.38
101.765,0.24,-1.09,0.2
101.775,0.01,-1.13,0.13
101.785,-0.07,-1.18,0.12
101.795,-0.11,-1.18,0.14
101.806,-0.12,-1.18,0.11
101.816,-0.13,-1.11,0.05
101.826,-0.23,-1.07,-0.14
101.836,-0.37,-1.04,-0.34
101.846,-0.42,-0.94,-0.46
101.856,-0.42,-0.88,-0.55
101.866,-0.42,-0.77,-0.66
101.876,-0.54,-0.69,-0.72
101.886,-0.61,-0.67,-0.78
101.896,-0.7,-0.65,-0.79
101.906,-0.85,-0.53,-0.7
101.916,-0.83,-0.38,-0.59
101.927,-0.87,-0.27,-0.4
101.936,-1.04,-0.23,-0.27
101.947,-1.23,-0.26,-0.17
101.957,-1.33,-0.3,-0.03
101.967,-1.24,-0.23,0.23
101.977,-0.95,-0.1,0.53
101.987,-0.69,-0.09,0.8
101.997,-0.52,-0.11,1.0
102.007,-0.38,-0.12,1.12
102.017,-0.35,-0.16,1.12
102.027,-0.4,-0.26,1.05
102.037,-0.59,-0.42,0.85
102.047,-0.85,-0.51,0.7
102.057,-1.09,-0.57,0.64
102.068,-1.27,-0.65,0.71
102.077,-1.37,-0.68,0.91
102.088,-1.45,-0.7,0.97
102.098,-1.51,-0.64,0.87
102.108,-1.52,-0.61,0.69
102.118,-1.44,-0.54,0.57
102.128,-1.33,-0.47,0.49
102.138,-1.19,-0.41,0.56
102.148,-1.06,-0.4,0.65
102.158,-1.0,-0.39,0.81
102.168,-0.88,-0.35,0.92
102.178,-0.91,-0.34,1.01
102.189,-1.0,-0.39,1.1
102.198,-1.11,-0.56,1.06
102.209,-1.33,-0.67,1.02
102.219,-1.52,-0.68,0.98
102.229,-1.59,-0.56,0.91
102.239,-1.61,-0.25,0.93
102.249,-1.59,0.23,1.0
102.259,-1.53,0.78,1.04
102.269,-1.59,1.21,1.01
102.279,-1.57,1.61,1.03
102.289,-1.49,1.88,1.04
102.299,-1.26,2.06,1.01
102.309,-1.06,2.2,0.94
102.319,-0.94,2.21,0.73
102.33,-0.97,2.19,0.43
102.34,-1.15,2.15,0.1
102.35,-1.3,2.14,-0.11
102.36,-1.52,2.07,-0.18
102.37,-1.86,1.99,-0.12
102.38,-2.12,1.86,0.06
102.39,-2.2,1.66,0.44
102.4,-2.22,1.39,0.83
102.41,-2.2,1.15,1.09
102.42,-2.09,1.05,1.16
102.43,-1.88,1.03,0.99
102.44,-1.72,1.07,0.62
102.451,-1.64,1.05,0.14
102.461,-1.52,1.0,-0.23
102.471,-1.37,0.82,-0.4
102.481,-1.21,0.53,-0.56
102.491,-1.07,0.16,-0.64
102.501,-1.04,-0.23,-0.61
102.511,-1.1,-0.55,-0.48
102.521,-1.17,-0.73,-0.26
102.531,-1.2,-0.85,-0.03
102.541,-1.2,-0.96,0.24
102.551,-1.28,-0.96,0.35
102.561,-1.21,-0.91,0.28
102.572,-1.07,-0.8,0.15
102.581,-0.83,-0.65,0.08
102.592,-0.71,-0.52,0.02
102.602,-0.58,-0.45,-0.1
102.612,-0.55,-0.38,-0.21
102.622,-0.72,-0.37,-0.24
102.632,-0.79,-0.41,-0.19
102.642,-0.83,-0.42,0.05
102.652,-0.86,-0.43,0.26
102.662,-0.84,-0.37,0.44
102.672,-0.85,-0.28,0.47
102.682,-0.66,0.02,0.55
102.693,-0.48,0.29,0.49
102.703,-0.45,0.42,0.33
102.713,-0.52,0.51,0.14
102.723,-0.41,0.7,0.07
102.733,-0.27,0.82,0.15
102.743,-0.11,0.93,0.23
102.753,-0.01,0.95,0.3
102.763,0.1,0.97,0.46
102.773,0.32,0.97,0.6
102.783,0.53,0.94,0.67
102.793,0.67,0.87,0.67
102.803,0.7,0.71,0.6
