timestamp,ax,ay,az
106.577,0.95,-0.07,-0.23
106.587,0.79,-0.19,-0.2
106.597,0.59,-0.27,-0.2
106.607,0.46,-0.26,-0.16
106.617,0.31,-0.28,-0.15
106.627,0.32,-0.35,-0.2
106.637,0.38,-0.37,-0.29
106.648,0.43,-0.31,-0.39
106.657,0.55,-0.27,-0.44
106.668,0.67,-0.23,-0.46
106.678,0.81,-0.11,-0.5
106.688,0.96,-0.07,-0.5
106.698,0.96,-0.05,-0.55
106.708,0.87,-0.04,-0.55
106.718,0.73,-0.14,-0.52
106.728,0.56,-0.34,-0.39
106.738,0.48,-0.41,-0.14
106.748,0.42,-0.41,0.17
106.758,0.35,-0.5,0.37
106.768,0.36,-0.48,0.48
106.778,0.27,-0.33,0.55
106.789,0.14,-0.18,0.45
106.798,0.03,-0.05,0.26
106.809,-0.07,0.17,0.01
106.819,-0.14,0.38,-0.17
106.829,-0.18,0.48,-0.36
106.839,-0.29,0.53,-0.56
106.849,-0.45,0.53,-0.59
106.859,-0.59,0.43,-0.57
106.869,-0.69,0.22,-0.48
106.879,-0.73,0.02,-0.29
106.89,-0.85,-0.17,-0.1
106.899,-1.03,-0.36,-0.04
106.91,-1.26,-0.5,-0.04
106.919,-1.47,-0.62,-0.05
106.93,-1.61,-0.67,-0.09
106.94,-1.79,-0.69,-0.18
106.95,-1.95,-0.68,-0.32
106.96,-2.02,-0.65,-0.45
106.97,-2.04,-0.61,-0.41
106.98,-1.98,-0.62,-0.18
106.99,-1.79,-0.7,0.16
107.0,-1.67,-0.81,0.54
107.01,-1.65,-0.89,0.9
107.02,-1.62,-0.93,1.18
107.031,-1.64,-0.95,1.35
107.04,-1.78,-0.86,1.27
107.051,-1.95,-0.7,0.95
107.061,-2.15,-0.4,0.49
107.071,-2.35,-0.04,0.07
107.081,-2.47,0.34,-0.3
107.091,-2.54,0.8,-0.47
107.101,-2.45,1.23,-0.33
107.111,-2.25,1.53,0.01
107.121,-2.0,1.88,0.4
107.131,-1.78,2.17,0.73
107.141,-1.67,2.28,1.11
107.151,-1.69,2.39,1.34
107.161,-1.73,2.52,1.5
107.172,-1.64,2.67,1.64
107.181,-1.42,2.87,1.81
107.192,-1.11,3.03,2.07
107.202,-0.85,3.13,2.26
107.212,-0.49,3.07,2.34
107.222,-0.25,2.81,2.27
107.232,-0.2,2.47,2.0
107.242,-0.28,2.15,1.55
107.252,-0.37,1.86,1.0
107.262,-0.44,1.55,0.43
107.272,-0.72,1.15,-0.07
107.282,-1.17,0.67,-0.44
107.293,-1.61,0.18,-0.65
107.302,-1.89,-0.2,-0.62
107.313,-2.07,-0.45,-0.45
107.323,-2.14,-0.6,-0.24
107.333,-2.12,-0.76,-0.13
107.343,-2.13,-0.9,-0.09
107.353,-2.08,-1.04,-0.08
107.363,-2.03,-1.17,-0.14
107.373,-2.02,-1.24,-0.26
107.383,-1.98,-1.21,-0.4
107.393,-1.98,-1.12,-0.48
107.403,-1.88,-1.06,-0.47
107.413,-1.82,-0.99,-0.39
107.423,-1.75,-0.86,-0.33
107.434,-1.55,-0.83,-0.34
107.444,-1.4,-0.81,-0.33
107.454,-1.31,-0.84,-0.32
107.464,-1.12,-0.81,-0.31
107.474,-1.05,-0.69,-0.36
107.484,-0.99,-0.69,-0.49
107.494,-0.93,-0.68,-0.63
107.504,-0.95,-0.68,-0.7
107.514,-0.85,-0.62,-0.75
107.524,-0.66,-0.46,-0.67
107.534,-0.47,-0.29,-0.44
107.544,-0.23,-0.04,-0.1
107.555,0.04,0.19,0.3
107.565,0.24,0.29,0.51
107.575,0.29,0.37,0.58
107.585,0.19,0.32,0.5
107.595,0.07,0.26,0.28
107.605,-0.02,0.27,0.04
107.615,0.01,0.26,-0.01
107.625,0.16,0.28,0.17
107.635,0.34,0.37,0.49
107.645,0.54,0.31,0.84
107.655,0.74,0.16,1.12
107.665,0.98,0.07,1.38
107.676,1.24,0.08,1.53
107.685,1.49,0.11,1.47
107.696,1.65,0.02,1.3
107.706,1.58,-0.1,1.0
107.716,1.42,-0.22,0.61
107.726,1.27,-0.36,0.24
107.736,1.18,-0.52,-0.07
107.746,1.21,-0.71,-0.17
107.756,1.28,-0.88,-0.18
107.766,1.39,-1.05,-0.08
107.776,1.42,-1.21,0.01
107.786,1.39,-1.38,-0.06
107.797,1.37,-1.51,-0.12
107.807,1.4,-1.59,-0.22
107.817,1.5,-1.63,-0.32
107.827,1.61,-1.7,-0.42
107.837,1.75,-1.69,-0.52
107.847,1.97,-1.57,-0.74
107.857,2.34,-1.44,-1.08
107.867,2.51,-1.33,-1.34
107.877,2.56,-1.22,-1.56
107.887,2.54,-1.0,-1.71
107.897,2.44,-0.75,-1.68
107.907,2.54,-0.42,-1.46
107.918,2.54,0.01,-1.06
107.927,2.39,0.19,-0.56
107.938,2.27,0.29,0.02
107.948,2.25,0.28,0.68
107.958,2.34,0.28,1.38
107.968,2.29,0.44,1.78
107.978,2.31,0.75,2.01
107.988,1.88,0.81,1.73
107.998,1.59,1.01,0.99
108.008,1.56,1.38,0.53
108.018,1.56,1.52,0.21
108.028,1.61,1.54,-0.04
108.038,1.55,1.49,-0.22
108.048,1.52,1.36,-0.52
108.059,1.37,1.27,-0.84
108.069,1.14,1.36,-1.1
108.079,1.08,1.36,-1.16
108.089,1.05,1.3,-0.91
108.099,1.05,1.17,-0.5
108.109,1.06,1.0,-0.02
108.119,1.28,0.92,0.46
108.129,1.49,0.88,0.73
108.139,1.58,0.78,0.86
108.149,1.61,0.67,0.8
108.159,1.57,0.54,0.51
108.169,1.45,0.34,0.13
108.18,1.33,0.07,-0.21
108.189,1.24,-0.1,-0.54
108.2,1.13,-0.18,-0.8
108.21,0.98,-0.34,-0.99
108.22,0.8,-0.52,-1.07
108.23,0.63,-0.69,-1.06
108.24,0.54,-0.77,-0.99
108.25,0.49,-0.79,-0.93
108.26,0.43,-0.85,-0.95
108.27,0.4,-0.87,-1.02
108.28,0.48,-0.88,-1.1
108.29,0.57,-0.79,-1.07
108.301,0.63,-0.74,-0.93
108.31,0.68,-0.78,-0.75
108.321,0.73,-0.76,-0.57
108.331,0.75,-0.77,-0.36
108.341,0.71,-0.8,-0.21
108.351,0.61,-0.72,-0.03
108.361,0.61,-0.63,0.22
108.371,0.61,-0.54,0.43
108.381,0.52,-0.5,0.55
108.391,0.49,-0.42,0.55
108.401,0.44,-0.27,0.42
108.411,0.29,-0.1,0.26
108.421,0.16,0.05,0.07
108.431,0.08,0.16,-0.05
108.442,-0.0,0.24,-0.1
108.452,-0.07,0.3,-0.07
108.462,-0.14,0.25,0.08
108.472,-0.27,0.08,0.21
108.482,-0.49,-0.08,0.41
108.492,-0.81,-0.3,0.6
108.502,-1.13,-0.55,0.68
108.512,-1.38,-0.73,0.73
108.522,-1.58,-0.87,0.72
108.532,-1.74,-0.92,0.59
108.542,-1.95,-0.96,0.4
108.552,-2.18,-0.92,0.1
108.563,-2.37,-0.83,-0.16
108.572,-2.51,-0.73,-0.4
108.583,-2.62,-0.56,-0.58
108.593,-2.7,-0.45,-0.59
108.603,-2.6,-0.46,-0.4
108.613,-2.38,-0.44,-0.04
108.623,-2.23,-0.42,0.48
108.633,-2.11,-0.5,1.05
108.643,-2.01,-0.57,1.68
108.653,-1.89,-0.62,2.17
108.663,-1.78,-0.67,2.54
108.673,-1.75,-0.54,2.73
108.683,-1.83,-0.1,2.72
108.693,-1.96,0.48,2.4
108.704,-2.16,1.11,1.83
108.714,-2.38,1.8,1.34
108.724,-2.44,2.49,0.98
108.734,-2.42,3.08,0.82
108.744,-2.38,3.43,0.84
108.754,-2.29,3.55,1.0
108.764,-2.18,3.48,1.17
108.774,-2.11,3.34,1.29
108.784,-2.14,3.11,1.26
108.794,-2.16,2.84,1.06
108.804,-2.21,2.65,0.78
108.814,-2.33,2.48,0.48
108.825,-2.48,2.3,0.27
108.835,-2.56,2.15,0.23
108.845,-2.52,1.97,0.33
108.855,-2.28,1.74,0.53
108.865,-1.95,1.52,0.85
108.875,-1.66,1.26,1.12
108.885,-1.44,0.93,1.14
108.895,-1.2,0.56,1.07
108.905,-1.11,0.22,0.83
108.915,-1.11,-0.2,0.54
108.925,-1.2,-0.68,0.28
108.935,-1.15,-1.05,-0.12
108.946,-1.09,-1.32,-0.57
108.955,-1.11,-1.43,-0.91
108.966,-1.11,-1.5,-1.18
108.976,-1.07,-1.64,-1.15
108.986,-0.96,-1.83,-0.88
108.996,-0.81,-2.01,-0.56
109.006,-0.53,-2.16,-0.22
109.016,-0.26,-2.24,0.16
109.026,-0.13,-2.18,0.29
109.036,-0.12,-1.98,0.26
109.046,-0.05,-1.75,0.06
109.056,-0.07,-1.47,-0.06
109.066,-0.01,-1.2,0.01
109.077,0.12,-0.96,0.17
109.087,0.32,-0.81,0.36
109.097,0.44,-0.76,0.57
109.107,0.51,-0.77,0.79
109.117,0.58,-0.71,0.83
109.127,0.52,-0.53,0.64
109.137,0.32,-0.17,0.17
109.147,0.22,0.27,-0.33
109.157,0.09,0.6,-0.75
109.167,0.01,0.87,-1.03
109.177,0.16,1.15,-1.02
109.187,0.61,1.28,-0.79
109.197,1.2,1.28,-0.52
109.208,1.69,1.16,-0.23
109.217,2.03,0.87,-0.01
109.228,2.25,0.57,0.15
109.238,2.28,0.23,0.12
109.248,2.21,-0.06,-0.03
109.258,2.07,-0.29,-0.21
109.268,1.82,-0.37,-0.33
109.278,1.48,-0.48,-0.29
109.288,1.31,-0.72,-0.18
109.298,1.36,-0.83,0.01
109.308,1.45,-0.82,0.14
109.318,1.51,-0.9,0.17
109.329,1.57,-0.97,0.16
109.339,1.63,-1.0,0.14
109.349,1.61,-1.04,0.09
109.359,1.57,-1.07,-0.12
109.369,1.56,-1.1,-0.42
109.379,1.49,-1.11,-0.7
109.389,1.39,-1.17,-0.83
109.399,1.46,-1.23,-0.87
109.409,1.55,-1.22,-0.83
109.419,1.57,-1.12,-0.78
109.429,1.57,-0.99,-0.72
109.439,1.59,-0.77,-0.65
109.449,1.82,-0.44,-0.54
109.459,2.14,0.0,-0.37
109.47,2.44,0.47,-0.29
109.48,2.7,0.89,-0.21
109.49,3.08,1.2,-0.06
109.5,3.48,1.39,0.15
109.51,3.76,1.46,0.32
109.52,3.85,1.43,0.33
109.53,3.71,1.34,0.24
109.54,3.48,1.23,0.1
109.55,3.28,1.12,-0.01
109.56,3.08,1.0,-0.21
109.57,2.9,0.9,-0.22
109.58,2.68,0.82,-0.21
109.591,2.45,0.64,-0.29
109.6,2.05,0.46,-0.37
109.611,1.69,0.36,-0.44
109.621,1.39,0.19,-0.4
109.631,1.11,0.03,-0.3
109.641,0.89,-0.17,-0.2
109.651,0.81,-0.29,-0.11
109.661,0.74,-0.33,-0.03
109.671,0.77,-0.41,0.11
109.681,0.88,-0.52,0.26
109.691,1.04,-0.51,0.43
109.701,1.13,-0.54,0.49
109.712,1.24,-0.57,0.47
109.721,1.28,-0.49,0.4
109.732,1.3,-0.42,0.27
109.742,1.29,-0.43,0.08
109.752,1.3,-0.4,-0.13
109.762,1.33,-0.39,-0.38
109.772,1.37,-0.35,-0.64
109.782,1.29,-0.3,-0.86
109.792,1.02,-0.33,-1.0
109.802,0.87,-0.39,-0.9
109.812,0.88,-0.4,-0.64
109.822,0.89,-0.38,-0.2
109.833,0.85,-0.44,0.19
109.843,0.82,-0.48,0.46
109.853,0.86,-0.47,0.67
109.863,0.89,-0.41,0.89
109.873,0.84,-0.4,0.94
109.883,0.68,-0.42,0.74
109.893,0.42,-0.32,0.4
109.903,0.16,-0.18,0.12
109.913,-0.01,-0.04,-0.07
109.923,-0.12,0.07,-0.17
109.933,-0.29,0.2,-0.24
109.943,-0.51,0.29,-0.29
109.953,-0.63,0.32,-0.29
109.963,-0.77,0.35,-0.21
109.974,-0.83,0.37,-0.06
109.983,-0.72,0.36,0.11
109.994,-0.53,0.43,0.25
110.004,-0.51,0.45,0.31
110.014,-0.58,0.3,0.33
110.024,-0.69,0.11,0.37
110.034,-0.88,-0.06,0.45
110.044,-1.1,-0.25,0.52
110.054,-1.33,-0.41,0.58
110.064,-1.62,-0.54,0.64
110.074,-1.79,-0.65,0.71
110.084,-1.82,-0.75,0.81
110.095,-1.78,-0.86,0.9
110.105,-1.78,-0.98,0.88
110.115,-1.82,-1.15,0.63
110.125,-1.93,-1.3,0.26
110.135,-2.07,-1.35,-0.13
110.145,-2.17,-1.4,-0.53
110.155,-2.3,-1.4,-0.96
110.165,-2.52,-1.24,-1.38
110.175,-2.63,-0.96,-1.71
110.185,-2.51,-0.58,-1.84
110.195,-2.27,-0.22,-1.67
110.206,-1.93,0.08,-1.25
110.216,-1.44,0.31,-0.5
110.225,-1.03,0.42,0.25
110.236,-0.72,0.51,0.76
110.246,-0.56,0.8,1.3
110.256,-0.49,1.17,2.02
110.266,-0.45,1.5,2.59
110.276,-0.56,1.91,3.14
110.286,-0.81,2.34,3.55
110.296,-1.11,2.71,3.68
110.306,-1.21,2.98,3.57
110.316,-1.28,3.14,3.35
110.326,-1.55,3.22,2.92
110.336,-1.87,3.09,2.23
110.346,-2.11,2.84,1.49
110.357,-2.32,2.6,0.81
110.366,-2.56,2.49,0.23
110.377,-2.72,2.4,-0.17
110.387,-2.75,2.34,-0.44
110.397,-2.62,2.27,-0.41
110.407,-2.34,2.14,-0.14
110.417,-1.98,1.84,0.29
110.427,-1.72,1.43,0.67
110.437,-1.52,1.01,0.9
110.447,-1.42,0.6,0.82
110.458,-1.41,0.18,0.62
110.467,-1.47,-0.06,0.34
110.478,-1.52,-0.19,0.08
110.487,-1.52,-0.3,0.01
110.498,-1.44,-0.4,0.04
110.508,-1.33,-0.46,0.11
110.518,-1.26,-0.49,0.21
110.528,-1.24,-0.48,0.32
110.538,-1.24,-0.54,0.47
110.548,-1.18,-0.68,0.55
110.558,-1.15,-0.78,0.61
110.568,-1.21,-0.89,0.6
110.579,-1.36,-1.01,0.46
110.588,-1.52,-1.13,0.18
110.599,-1.64,-1.15,-0.06
110.609,-1.69,-1.08,-0.24
110.619,-1.69,-1.04,-0.31
110.629,-1.69,-0.87,-0.24
110.639,-1.66,-0.75,-0.05
110.649,-1.55,-0.69,0.24
110.659,-1.53,-0.66,0.57
110.669,-1.46,-0.72,0.84
110.679,-1.31,-0.71,1.09
110.689,-1.21,-0.61,1.28
110.699,-1.03,-0.52,1.37
110.709,-0.78,-0.34,1.31
110.719,-0.62,-0.14,1.09
110.729,-0.54,-0.02,0.74
110.74,-0.52,0.13,0.47
110.75,-0.43,0.28,0.32
110.76,-0.28,0.37,0.3
110.77,-0.17,0.35,0.38
110.78,-0.05,0.19,0.52
110.79,0.07,0.02,0.71
110.8,0.2,-0.21,0.93
110.81,0.33,-0.43,1.02
110.82,0.4,-0.54,0.87
110.83,0.4,-0.54,0.5
110.841,0.33,-0.49,0.08
110.85,0.29,-0.46,-0.27
110.861,0.27,-0.58,-0.42
110.87,0.2,-0.76,-0.44
110.881,0.15,-0.91,-0.37
110.891,0.21,-1.04,-0.28
110.901,0.27,-1.22,-0.17
110.911,0.28,-1.39,-0.13
110.921,0.2,-1.48,-0.2
110.931,0.15,-1.57,-0.35
110.941,0.19,-1.57,-0.49
110.951,0.29,-1.51,-0.57
110.961,0.46,-1.49,-0.57
110.971,0.7,-1.47,-0.52
110.982,0.97,-1.27,-0.51
110.991,1.18,-1.03,-0.56
111.002,1.3,-0.89,-0.79
111.012,1.38,-0.73,-1.04
111.022,1.41,-0.5,-1.15
111.032,1.46,-0.37,-1.15
111.042,1.58,-0.26,-0.95
111.052,1.75,0.03,-0.33
111.062,2.03,0.35,0.36
111.072,2.4,0.81,0.86
111.082,2.69,1.44,1.16
111.092,2.9,1.93,0.96
111.103,3.03,2.25,0.41
111.113,3.0,2.52,-0.07
111.123,2.94,2.6,-0.59
111.132,2.94,2.53,-0.98
111.143,2.98,2.42,-1.13
111.153,3.0,2.12,-1.06
111.163,3.14,1.64,-0.78
111.173,3.23,1.17,-0.39
111.183,3.16,0.74,-0.28
111.193,2.95,0.37,-0.37
111.203,2.73,0.18,-0.54
111.213,2.48,0.1,-0.91
111.223,2.0,-0.05,-1.25
111.233,1.64,-0.19,-1.54
111.244,1.35,-0.3,-1.74
111.253,1.19,-0.42,-1.81
111.264,1.12,-0.55,-1.79
111.274,0.99,-0.74,-1.65
111.284,0.72,-0.97,-1.47
111.294,0.47,-1.2,-1.29
111.304,0.34,-1.47,-1.0
111.314,0.25,-1.58,-0.68
111.324,-0.1,-1.59,-0.26
111.334,0.09,-1.72,-0.05
111.344,0.23,-1.7,0.18
111.354,0.06,-1.69,0.27
111.365,0.13,-1.66,0.09
111.375,0.26,-1.45,0.09
111.385,0.22,-1.19,0.02
111.395,0.29,-1.04,-0.18
111.405,0.24,-1.04,-0.22
111.415,0.26,-1.05,-0.05
111.425,0.3,-0.99,0.23
111.435,0.41,-0.83,0.55
111.445,0.54,-0.55,0.82
111.455,0.49,-0.33,0.87
111.465,0.4,-0.32,0.8
111.475,0.39,-0.33,0.68
111.486,0.55,-0.1,0.69
111.495,0.87,0.11,0.83
111.506,1.0,0.19,0.82
111.516,0.9,0.27,0.6
111.526,0.81,0.24,0.36
111.536,0.59,0.14,0.2
111.546,0.15,0.23,0.1
111.556,-0.24,0.33,-0.07
111.566,-0.31,0.07,-0.07
