timestamp,ax,ay,az
192.985,0.86,-1.18,0.02
192.995,0.7,-1.16,-0.52
193.006,0.77,-1.12,-0.77
193.016,0.95,-1.03,-0.88
193.026,1.17,-0.96,-0.78
193.036,1.51,-0.93,-0.6
193.046,1.86,-0.95,-0.52
193.056,2.08,-0.92,-0.58
193.066,2.17,-0.83,-0.74
193.076,2.22,-0.81,-0.95
193.086,2.31,-0.81,-1.01
193.096,2.4,-0.65,-0.84
193.106,2.42,-0.59,-0.6
193.116,2.4,-0.68,-0.49
193.127,2.41,-0.74,-0.53
193.136,2.43,-0.61,-0.66
193.147,2.5,-0.32,-0.8
193.157,2.71,0.23,-1.07
193.167,3.13,0.99,-1.36
193.177,3.83,1.78,-1.44
193.187,4.47,2.47,-1.43
193.197,4.69,2.78,-1.56
193.207,4.31,2.59,-1.9
193.217,3.51,2.19,-2.32
193.227,2.57,1.72,-2.65
193.237,1.54,1.33,-2.78
193.248,0.76,1.01,-2.65
193.257,0.31,0.85,-2.33
193.268,0.18,0.88,-1.81
193.278,0.4,0.91,-1.13
193.288,0.95,0.95,-0.31
193.298,1.42,0.92,0.31
193.308,1.67,0.83,0.67
193.318,1.71,0.55,0.78
193.328,1.62,0.21,0.65
193.338,1.43,-0.08,0.29
193.348,1.2,-0.24,-0.14
193.358,0.89,-0.28,-0.34
193.368,0.74,-0.39,-0.57
193.378,0.68,-0.4,-0.7
193.389,0.57,-0.28,-0.7
193.399,0.53,-0.25,-0.75
193.409,0.45,-0.21,-0.69
193.419,0.39,-0.14,-0.53
193.429,0.46,-0.16,-0.36
193.439,0.56,-0.15,-0.1
193.449,0.46,-0.11,0.06
193.459,0.3,-0.17,0.16
193.469,0.24,-0.29,0.25
193.479,0.1,-0.26,0.39
193.489,0.11,-0.22,0.57
193.499,0.03,-0.25,0.76
193.51,-0.12,-0.37,0.86
193.52,-0.21,-0.54,0.87
193.53,-0.16,-0.6,0.88
193.54,-0.1,-0.53,0.82
193.55,-0.09,-0.48,0.7
193.56,-0.05,-0.42,0.56
193.57,-0.05,-0.39,0.38
193.58,-0.06,-0.43,0.09
193.59,-0.06,-0.43,-0.12
193.6,0.02,-0.3,-0.18
193.61,0.06,-0.18,-0.2
193.62,0.06,-0.19,-0.17
193.631,0.09,-0.29,-0.12
193.641,0.11,-0.38,-0.04
193.651,0.01,-0.49,0.08
193.661,-0.15,-0.58,0.08
193.671,-0.31,-0.58,0.08
193.681,-0.41,-0.55,0.19
193.691,-0.53,-0.55,0.24
193.701,-0.7,-0.6,0.31
193.711,-0.8,-0.67,0.49
193.721,-0.8,-0.74,0.62
193.731,-0.77,-0.75,0.73
193.741,-0.73,-0.72,0.89
193.751,-0.73,-0.57,0.87
193.762,-0.8,-0.44,0.67
193.772,-0.98,-0.41,0.45
193.782,-1.07,-0.38,0.28
193.792,-1.07,-0.34,0.19
193.802,-1.07,-0.23,0.19
193.812,-0.99,-0.1,0.24
193.822,-0.88,-0.01,0.24
193.832,-0.8,0.05,0.18
193.842,-0.69,0.13,0.13
193.852,-0.62,0.16,0.06
193.862,-0.6,0.18,0.12
193.872,-0.57,0.13,0.16
193.882,-0.55,0.01,0.27
193.893,-0.54,-0.07,0.48
193.902,-0.55,-0.11,0.66
193.913,-0.52,0.05,0.86
193.923,-0.42,0.39,0.84
193.933,-0.32,0.9,0.74
193.943,-0.31,1.56,0.65
193.953,-0.34,2.22,0.51
193.963,-0.35,2.77,0.33
193.973,-0.38,3.16,0.11
193.983,-0.5,3.33,-0.03
193.993,-0.54,3.32,-0.1
194.003,-0.6,3.12,-0.11
194.013,-0.75,2.7,-0.04
194.023,-0.98,2.17,-0.01
194.034,-1.25,1.64,-0.11
194.044,-1.4,1.2,-0.18
194.054,-1.34,0.79,-0.18
194.064,-1.2,0.54,-0.19
194.074,-1.1,0.41,-0.14
194.084,-1.1,0.2,-0.24
194.094,-1.25,-0.13,-0.53
194.104,-1.44,-0.39,-0.79
194.114,-1.61,-0.69,-0.85
194.124,-1.52,-1.0,-0.73
194.134,-1.37,-1.16,-0.48
194.144,-1.29,-1.2,-0.22
194.155,-1.16,-1.22,-0.01
194.165,-1.1,-1.2,0.22
194.175,-1.06,-1.23,0.36
194.185,-1.04,-1.22,0.43
194.195,-1.08,-1.09,0.47
194.205,-1.14,-1.02,0.42
194.215,-1.21,-1.01,0.36
194.225,-1.3,-0.98,0.33
194.235,-1.33,-0.89,0.31
194.245,-1.3,-0.84,0.29
194.255,-1.28,-0.78,0.29
194.265,-1.43,-0.78,0.29
194.276,-1.53,-0.79,0.23
194.285,-1.64,-0.77,0.24
194.296,-1.64,-0.7,0.31
194.306,-1.66,-0.58,0.36
194.316,-1.68,-0.51,0.43
194.326,-1.63,-0.43,0.46
194.336,-1.59,-0.33,0.5
194.346,-1.42,-0.22,0.5
194.356,-1.23,-0.1,0.54
194.366,-1.16,0.03,0.59
194.376,-1.1,0.1,0.56
194.386,-1.0,0.13,0.57
194.396,-0.83,0.16,0.74
194.407,-0.56,0.13,0.85
194.417,-0.23,0.19,0.99
194.427,-0.02,0.3,1.07
194.437,0.2,0.37,0.89
194.447,0.37,0.47,0.67
194.457,0.54,0.49,0.45
194.467,0.76,0.44,0.23
194.477,0.91,0.41,0.09
194.487,1.04,0.39,-0.03
194.497,1.11,0.32,-0.16
194.507,1.16,0.26,-0.36
194.518,1.16,0.18,-0.45
194.527,1.09,0.01,-0.28
194.538,1.03,-0.2,0.03
194.548,0.97,-0.39,0.38
194.558,1.02,-0.46,0.64
194.568,1.11,-0.41,0.78
194.578,1.14,-0.32,0.77
194.588,1.24,-0.26,0.6
194.598,1.27,-0.2,0.27
194.608,1.29,-0.26,-0.08
194.618,1.27,-0.37,-0.37
194.628,1.24,-0.59,-0.55
194.638,1.13,-0.84,-0.56
194.648,1.07,-1.12,-0.52
194.659,0.89,-1.53,-0.48
194.669,0.57,-1.99,-0.43
194.679,0.26,-2.38,-0.45
194.689,-0.02,-2.7,-0.5
194.699,-0.07,-2.85,-0.61
194.709,0.21,-2.48,-0.68
194.719,0.91,-1.75,-0.79
194.729,1.73,-1.14,-1.12
194.739,2.58,-0.57,-1.27
194.749,3.33,-0.03,-1.41
194.759,3.82,0.33,-1.64
194.769,3.83,0.69,-1.95
194.78,3.43,1.01,-2.23
194.79,2.73,1.23,-2.54
194.8,1.85,1.38,-2.69
194.81,1.09,1.68,-2.48
194.82,0.73,2.13,-2.0
194.83,0.71,2.52,-1.34
194.84,1.05,2.72,-0.53
194.85,1.6,2.71,0.43
194.86,2.27,2.41,1.21
194.87,2.8,1.86,1.69
194.88,2.98,1.31,1.78
194.89,2.81,0.77,1.37
194.901,2.52,0.32,0.82
194.91,2.16,-0.07,0.33
194.921,1.73,-0.29,-0.09
194.931,1.42,-0.36,-0.26
194.941,1.33,-0.48,-0.24
194.951,1.24,-0.58,-0.25
194.961,1.16,-0.65,-0.21
194.971,1.05,-0.59,-0.16
194.981,1.01,-0.51,-0.25
194.991,1.09,-0.49,-0.32
195.001,1.12,-0.47,-0.22
195.011,1.1,-0.45,-0.2
195.022,1.04,-0.48,-0.28
195.031,1.0,-0.45,-0.4
195.042,0.78,-0.37,-0.43
195.051,0.7,-0.44,-0.44
195.062,0.67,-0.57,-0.39
195.072,0.64,-0.7,-0.23
195.082,0.62,-0.83,-0.11
195.092,0.59,-0.9,-0.12
195.102,0.57,-0.9,-0.21
195.112,0.57,-0.89,-0.26
195.122,0.57,-0.85,-0.23
195.132,0.59,-0.81,-0.25
195.142,0.61,-0.78,-0.27
195.152,0.66,-0.69,-0.22
195.163,0.58,-0.62,-0.2
195.172,0.5,-0.55,-0.26
195.183,0.39,-0.35,-0.36
195.193,0.24,-0.19,-0.45
195.203,0.21,-0.11,-0.46
195.213,0.26,0.01,-0.42
195.223,0.26,0.11,-0.37
195.233,0.25,0.14,-0.37
195.243,0.16,0.16,-0.39
195.253,0.04,0.12,-0.5
195.263,-0.05,-0.01,-0.54
195.273,-0.18,-0.16,-0.49
195.283,-0.31,-0.34,-0.42
195.293,-0.46,-0.57,-0.33
195.304,-0.6,-0.73,-0.27
195.314,-0.79,-0.84,-0.24
195.324,-1.04,-1.0,-0.18
195.334,-1.14,-1.13,-0.06
195.344,-1.14,-1.19,0.14
195.354,-1.05,-1.18,0.29
195.364,-0.98,-1.1,0.32
195.374,-0.79,-0.92,0.26
195.384,-0.66,-0.74,0.15
195.394,-0.63,-0.59,-0.1
195.404,-0.58,-0.52,-0.38
195.417,-0.46,-0.31,-0.6
195.425,-0.43,-0.03,-0.66
195.434,-0.37,0.14,-0.69
195.445,-0.29,0.18,-0.6
195.455,-0.33,0.15,-0.36
195.465,-0.45,-0.03,-0.13
195.475,-0.61,-0.35,0.09
195.485,-0.83,-0.68,0.33
195.495,-0.92,-0.91,0.64
195.505,-1.02,-0.88,1.04
195.515,-1.22,-0.63,1.43
195.525,-1.35,-0.29,1.85
195.535,-1.47,0.28,2.25
195.546,-1.63,0.97,2.4
195.555,-1.95,1.7,1.98
195.566,-2.26,2.38,1.24
195.576,-2.43,2.92,0.7
195.586,-2.43,3.36,0.46
195.596,-2.34,3.72,0.33
195.606,-2.12,3.87,0.37
195.616,-1.9,3.78,0.5
195.626,-1.67,3.65,0.56
195.636,-1.61,3.37,0.53
195.646,-1.6,2.93,0.59
195.656,-1.66,2.4,0.73
195.666,-1.83,1.76,0.95
195.676,-1.97,1.13,1.22
195.687,-1.99,0.58,1.44
195.697,-2.01,0.11,1.56
195.707,-2.1,-0.28,1.47
195.717,-2.1,-0.51,1.15
195.727,-2.1,-0.55,0.75
195.737,-2.02,-0.55,0.45
195.75,-1.81,-0.46,0.22
195.757,-1.64,-0.41,0.12
195.768,-1.51,-0.47,0.19
195.777,-1.4,-0.62,0.27
195.787,-1.34,-0.76,0.29
195.797,-1.29,-0.82,0.27
195.808,-1.3,-0.89,0.34
195.818,-1.36,-0.96,0.38
195.828,-1.41,-1.04,0.42
195.838,-1.38,-1.1,0.47
195.848,-1.27,-1.09,0.5
195.858,-1.24,-1.06,0.49
195.868,-1.22,-1.01,0.36
195.878,-1.2,-0.91,0.25
195.888,-1.07,-0.81,0.16
195.898,-1.0,-0.71,0.17
195.908,-0.92,-0.58,0.2
195.918,-0.84,-0.51,0.28
195.929,-0.73,-0.4,0.42
195.939,-0.62,-0.17,0.56
195.949,-0.53,0.01,0.67
195.959,-0.38,0.13,0.82
195.969,-0.37,0.24,0.87
195.979,-0.42,0.27,0.7
195.989,-0.46,0.33,0.5
195.999,-0.49,0.48,0.42
196.009,-0.46,0.61,0.35
196.019,-0.29,0.68,0.32
196.029,-0.03,0.69,0.39
196.039,0.12,0.73,0.47
196.049,0.27,0.65,0.44
196.06,0.42,0.53,0.42
196.07,0.59,0.4,0.36
196.08,0.75,0.3,0.28
196.09,0.84,0.22,0.12
196.1,0.87,0.16,0.01
196.11,0.92,0.04,-0.07
196.12,0.92,-0.15,-0.02
196.13,0.97,-0.32,0.14
196.14,1.04,-0.44,0.23
196.15,1.1,-0.51,0.21
196.16,1.17,-0.64,0.11
196.17,1.13,-0.78,-0.02
196.18,1.03,-0.98,-0.16
196.191,0.97,-1.21,-0.29
196.201,0.94,-1.44,-0.28
196.211,0.89,-1.65,-0.22
196.221,0.77,-1.9,-0.17
196.231,0.74,-2.07,-0.14
196.241,0.83,-2.12,-0.06
196.251,0.97,-2.11,-0.05
196.261,1.1,-2.0,-0.08
196.271,1.27,-1.81,-0.1
196.281,1.64,-1.59,-0.29
196.291,1.98,-1.28,-0.53
196.301,2.19,-1.02,-0.78
196.312,2.47,-0.89,-0.96
196.321,2.69,-0.75,-1.05
196.332,2.89,-0.52,-1.08
196.342,3.08,-0.17,-1.06
196.352,3.07,0.35,-1.09
196.362,2.92,0.88,-1.31
196.372,2.54,1.36,-1.47
196.382,2.21,1.85,-1.58
196.392,1.93,2.35,-1.53
196.402,1.78,2.68,-1.41
196.412,1.9,2.92,-1.17
196.422,2.14,3.03,-0.87
196.433,2.36,3.04,-0.61
196.442,2.45,2.96,-0.36
196.453,2.47,2.79,-0.22
196.463,2.45,2.56,-0.09
196.473,2.33,2.2,-0.04
196.483,2.17,1.81,-0.05
196.493,1.99,1.4,-0.0
196.503,1.69,0.95,-0.03
196.513,1.49,0.56,-0.05
196.523,1.36,0.23,-0.07
196.533,1.21,-0.07,-0.16
196.543,1.18,-0.27,-0.24
196.553,1.19,-0.52,-0.41
196.563,1.12,-0.71,-0.58
196.574,1.06,-0.82,-0.66
196.584,0.99,-0.94,-0.71
196.594,0.9,-1.07,-0.75
196.604,0.87,-1.13,-0.75
196.614,0.78,-1.15,-0.73
196.624,0.72,-1.17,-0.7
196.634,0.69,-1.18,-0.7
196.644,0.63,-1.26,-0.71
196.654,0.55,-1.31,-0.63
196.664,0.51,-1.37,-0.51
196.674,0.44,-1.42,-0.36
196.684,0.35,-1.45,-0.27
196.695,0.36,-1.4,-0.16
196.705,0.35,-1.26,-0.11
196.715,0.27,-1.09,-0.14
196.725,0.31,-0.96,-0.15
196.735,0.56,-0.75,0.04
196.745,0.84,-0.41,0.3
196.755,1.03,-0.17,0.45
196.765,1.08,0.01,0.33
196.775,1.06,0.22,0.1
196.785,1.02,0.39,-0.19
196.795,0.97,0.46,-0.39
196.805,0.98,0.52,-0.46
196.816,0.91,0.52,-0.52
196.826,0.85,0.52,-0.49
196.836,0.73,0.46,-0.36
196.846,0.52,0.3,-0.25
196.856,0.18,0.0,-0.13
196.866,-0.2,-0.35,0.02
196.876,-0.48,-0.62,0.24
196.886,-0.74,-0.85,0.46
196.896,-0.87,-0.99,0.67
196.906,-0.96,-1.07,0.82
196.916,-1.08,-1.16,0.87
196.926,-1.11,-1.23,0.88
196.936,-1.06,-1.23,0.92
196.946,-1.0,-1.21,0.89
196.957,-1.03,-1.19,0.76
196.967,-1.03,-1.13,0.56
196.977,-1.11,-0.96,0.43
196.987,-1.25,-0.81,0.32
196.997,-1.37,-0.75,0.24
197.007,-1.47,-0.7,0.23
197.017,-1.68,-0.6,0.22
197.027,-1.77,-0.62,0.29
197.037,-1.78,-0.72,0.48
197.047,-1.74,-0.72,0.75
197.057,-1.58,-0.67,1.03
197.067,-1.5,-0.64,1.28
197.078,-1.54,-0.62,1.42
197.087,-1.65,-0.49,1.52
197.098,-1.74,-0.24,1.71
197.108,-1.77,0.14,1.93
197.118,-1.86,0.67,1.96
197.128,-1.92,1.32,1.87
197.138,-1.84,2.02,1.57
197.148,-1.61,2.62,1.19
197.158,-1.43,3.12,0.89
197.168,-1.31,3.43,0.64
197.178,-1.24,3.53,0.42
197.188,-1.2,3.54,0.2
197.199,-1.1,3.49,0.08
197.208,-0.97,3.45,0.06
197.219,-0.92,3.3,0.02
197.229,-0.94,3.04,0.04
197.239,-1.0,2.77,0.19
197.249,-1.12,2.46,0.41
197.259,-1.28,2.11,0.59
197.269,-1.53,1.7,0.69
197.279,-1.71,1.33,0.81
197.289,-1.87,1.02,0.98
197.299,-1.92,0.75,1.13
197.309,-1.96,0.49,1.23
197.32,-1.96,0.21,1.4
197.329,-1.94,-0.03,1.51
197.34,-1.93,-0.15,1.52
197.35,-1.89,-0.2,1.44
197.36,-1.82,-0.19,1.22
197.37,-1.77,-0.2,0.91
197.38,-1.74,-0.26,0.57
197.39,-1.6,-0.35,0.38
197.4,-1.47,-0.4,0.26
197.41,-1.37,-0.52,0.07
197.42,-1.32,-0.67,-0.13
197.43,-1.31,-0.78,-0.33
197.441,-1.31,-0.87,-0.51
197.45,-1.2,-0.91,-0.58
197.461,-1.14,-1.01,-0.58
197.471,-1.06,-1.16,-0.52
197.481,-0.98,-1.2,-0.5
197.491,-0.9,-1.13,-0.45
197.501,-0.81,-0.98,-0.37
197.511,-0.76,-0.92,-0.33
197.521,-0.67,-0.9,-0.26
197.531,-0.59,-0.81,-0.19
197.541,-0.44,-0.68,-0.16
197.551,-0.29,-0.51,-0.16
197.562,-0.21,-0.41,-0.18
197.571,-0.11,-0.3,-0.13
197.582,-0.13,-0.15,-0.13
197.592,-0.15,-0.12,-0.22
197.602,-0.14,-0.12,-0.24
197.612,-0.01,-0.09,-0.22
197.622,0.11,-0.06,-0.06
197.632,0.28,-0.11,0.16
197.642,0.43,-0.19,0.32
197.652,0.53,-0.16,0.37
197.662,0.66,-0.11,0.37
197.672,0.85,-0.06,0.39
197.682,1.0,0.01,0.48
197.692,1.17,-0.04,0.61
197.703,1.32,-0.28,0.8
197.712,1.42,-0.62,0.96
197.723,1.45,-0.89,1.11
197.733,1.57,-0.98,1.28
197.743,1.69,-0.95,1.41
197.753,1.75,-0.79,1.34
197.763,1.67,-0.68,1.02
197.773,1.62,-0.65,0.68
197.783,1.63,-0.66,0.43
197.793,1.67,-0.7,0.19
197.803,1.83,-0.74,0.04
197.813,1.87,-0.75,-0.0
197.824,1.92,-0.81,-0.08
197.833,2.01,-0.93,-0.21
197.844,2.06,-1.03,-0.33
197.854,1.99,-1.08,-0.55
197.864,1.91,-0.91,-0.92
197.874,1.73,-0.69,-1.46
197.884,1.71,-0.52,-1.92
197.894,1.81,-0.22,-2.05
197.904,2.08,0.19,-1.86
197.914,2.67,0.57,-1.49
197.924,3.35,1.02,-1.14
197.934,3.62,1.27,-0.88
197.945,3.5,1.32,-0.57
197.954,3.36,1.27,-0.22
197.965,3.34,1.38,-0.03
197.975,3.25,1.61,-0.08
