timestamp,ax,ay,az
238.959,-1.46,-1.41,-0.04
238.969,-1.43,-1.4,-0.37
238.979,-1.28,-1.3,-0.57
238.989,-1.1,-1.25,-0.74
239.0,-0.84,-1.24,-0.73
239.01,-0.66,-1.33,-0.48
239.02,-0.58,-1.56,0.06
239.03,-0.44,-1.62,0.8
239.04,-0.32,-1.48,1.31
239.05,-0.33,-1.12,1.34
239.06,-0.43,-0.77,1.1
239.07,-0.3,-0.48,0.72
239.08,-0.0,-0.15,0.36
239.09,0.33,0.36,0.13
239.1,0.66,1.08,-0.15
239.11,1.13,1.8,-0.53
239.121,1.71,2.32,-1.06
239.13,2.01,2.52,-1.34
239.141,2.25,2.75,-1.32
239.151,2.5,2.73,-1.2
239.161,2.59,2.55,-0.92
239.171,2.58,2.32,-0.64
239.181,2.45,1.89,-0.45
239.191,2.29,1.5,-0.25
239.201,2.18,1.26,-0.12
239.211,2.07,1.03,-0.04
239.221,2.01,0.88,-0.12
239.231,1.96,0.77,-0.39
239.242,1.83,0.69,-0.61
239.251,1.75,0.66,-0.77
239.262,1.67,0.61,-0.82
239.272,1.52,0.46,-0.75
239.282,1.3,0.26,-0.62
239.292,1.09,0.12,-0.43
239.302,0.85,-0.1,-0.18
239.312,0.64,-0.29,-0.08
239.322,0.52,-0.41,-0.1
239.332,0.4,-0.51,-0.06
239.342,0.32,-0.61,0.04
239.352,0.39,-0.67,0.0
239.362,0.55,-0.6,-0.02
239.372,0.64,-0.57,-0.02
239.383,0.85,-0.52,0.0
239.393,0.95,-0.58,0.01
239.403,0.93,-0.7,0.02
239.413,0.81,-0.8,0.0
239.423,0.64,-0.94,0.02
239.433,0.49,-1.04,0.04
239.443,0.24,-1.18,-0.0
239.453,0.04,-1.1,0.0
239.463,-0.08,-0.87,0.01
239.473,-0.07,-0.72,-0.01
239.483,-0.09,-0.64,-0.15
239.493,-0.17,-0.44,-0.2
239.504,-0.04,-0.26,-0.14
239.514,0.09,-0.14,-0.06
239.524,0.13,-0.06,-0.07
239.534,0.1,0.0,-0.13
239.544,0.12,0.07,-0.2
239.554,0.14,0.13,-0.2
239.564,0.16,0.17,-0.3
239.574,0.09,0.21,-0.43
239.584,0.02,0.29,-0.52
239.594,-0.03,0.3,-0.66
239.604,-0.17,0.16,-0.71
239.614,-0.45,0.02,-0.72
239.624,-0.85,-0.26,-0.6
239.634,-1.16,-0.54,-0.32
239.645,-1.2,-0.79,0.08
239.655,-1.15,-1.05,0.5
239.665,-1.16,-1.12,0.76
239.675,-1.2,-1.15,0.88
239.685,-1.22,-1.11,0.94
239.695,-1.18,-0.93,0.94
239.705,-1.05,-0.64,0.82
239.715,-0.9,-0.3,0.59
239.725,-0.76,0.03,0.25
239.735,-0.78,0.27,-0.06
239.746,-0.88,0.34,-0.24
239.756,-0.74,0.45,-0.2
239.766,-0.55,0.6,-0.12
239.776,-0.56,0.71,0.0
239.786,-0.6,0.76,0.07
239.796,-0.67,0.73,-0.08
239.806,-0.67,0.55,-0.23
239.816,-0.68,0.23,-0.02
239.826,-0.46,-0.11,0.46
239.836,-0.32,-0.55,0.98
239.846,-0.16,-0.91,1.55
239.856,0.09,-1.14,2.27
239.866,0.23,-1.28,2.93
239.876,0.1,-1.21,3.42
239.887,-0.14,-1.05,3.64
239.896,-0.42,-0.82,3.54
239.907,-0.65,-0.35,3.34
239.917,-0.88,0.28,2.86
239.927,-1.21,0.93,2.1
239.937,-1.7,1.48,1.48
239.947,-1.89,1.69,1.1
239.957,-1.86,1.73,0.84
239.967,-1.98,1.78,0.63
239.977,-2.19,1.74,0.5
239.988,-2.34,1.65,0.36
239.997,-2.63,1.4,0.39
240.008,-2.87,1.12,0.58
240.017,-2.9,1.05,0.73
240.028,-2.8,1.15,0.72
240.037,-2.57,1.08,0.77
240.048,-2.25,1.0,0.84
240.058,-1.83,0.99,0.8
240.068,-1.48,0.9,0.7
240.078,-1.27,0.9,0.48
240.088,-1.1,0.96,0.23
240.098,-1.07,0.95,0.06
240.108,-1.0,0.91,-0.01
240.118,-0.89,0.76,0.13
240.128,-0.96,0.49,0.34
240.138,-0.92,0.13,0.6
240.149,-0.9,-0.19,0.88
240.159,-1.05,-0.49,0.97
240.169,-1.28,-0.64,0.92
240.179,-1.51,-0.77,0.77
240.189,-1.64,-0.8,0.56
240.199,-1.58,-0.7,0.4
240.209,-1.64,-0.55,0.25
240.219,-1.81,-0.46,-0.0
240.229,-1.86,-0.45,-0.2
240.239,-1.89,-0.54,-0.28
240.249,-1.76,-0.65,-0.19
240.259,-1.54,-0.7,-0.04
240.27,-1.29,-0.72,0.15
240.28,-1.04,-0.72,0.26
240.29,-1.0,-0.79,0.14
240.3,-1.02,-0.86,-0.03
240.31,-1.13,-0.9,-0.11
240.32,-1.2,-1.04,-0.1
240.33,-1.12,-1.17,0.02
240.34,-0.97,-1.16,0.21
240.35,-0.83,-1.12,0.34
240.36,-0.62,-1.07,0.45
240.37,-0.37,-0.89,0.66
240.38,-0.0,-0.8,0.81
240.391,0.33,-0.64,0.75
240.4,0.64,-0.35,0.54
240.411,0.93,-0.24,0.35
240.421,1.38,-0.17,0.13
240.431,1.83,-0.06,-0.09
240.441,2.24,0.03,-0.22
240.451,2.54,0.21,-0.36
240.461,2.66,0.36,-0.65
240.471,2.51,0.43,-1.03
240.481,2.25,0.52,-1.38
240.491,2.1,0.57,-1.45
240.501,2.05,0.58,-1.29
240.512,1.98,0.6,-0.92
240.521,1.86,0.47,-0.42
240.532,1.82,0.25,0.06
240.542,1.79,0.07,0.32
240.552,1.74,-0.09,0.38
240.562,1.72,-0.24,0.21
240.572,1.74,-0.39,0.01
240.582,1.75,-0.47,-0.22
240.592,1.71,-0.48,-0.4
240.602,1.71,-0.46,-0.57
240.612,1.71,-0.34,-0.82
240.622,1.63,-0.23,-1.04
240.632,1.59,-0.15,-1.13
240.642,1.5,-0.05,-1.08
240.653,1.41,-0.03,-0.94
240.663,1.26,-0.05,-0.84
240.673,1.02,-0.15,-0.68
240.683,0.71,-0.26,-0.55
240.693,0.42,-0.31,-0.47
240.703,0.23,-0.27,-0.41
240.713,0.09,-0.11,-0.53
240.723,-0.12,0.12,-0.72
240.733,-0.36,0.22,-0.93
240.743,-0.55,0.27,-1.1
240.753,-0.72,0.35,-1.11
240.763,-0.75,0.36,-0.97
240.774,-0.75,0.44,-0.83
240.784,-0.78,0.72,-0.92
240.794,-0.89,1.02,-1.16
240.804,-1.02,1.25,-1.5
240.814,-1.06,1.41,-1.71
240.824,-1.03,1.55,-1.6
240.834,-0.97,1.72,-1.4
240.844,-0.92,1.72,-1.17
240.854,-0.99,1.64,-1.04
240.864,-1.1,1.41,-0.84
240.874,-1.12,1.0,-0.49
240.884,-1.14,0.53,-0.08
240.894,-1.13,0.18,0.3
240.904,-1.02,0.03,0.65
240.915,-1.07,-0.19,0.82
240.925,-1.11,-0.38,0.89
240.935,-1.15,-0.36,0.89
240.945,-1.16,-0.37,0.99
240.955,-1.02,-0.38,1.12
240.965,-0.82,-0.29,1.2
240.975,-0.56,-0.21,1.25
240.985,-0.28,-0.16,1.18
240.995,-0.15,-0.1,1.0
241.005,-0.13,-0.14,0.75
241.015,-0.15,-0.2,0.52
241.025,-0.19,-0.24,0.38
241.036,-0.3,-0.28,0.38
241.045,-0.48,-0.41,0.43
241.056,-0.58,-0.5,0.51
241.066,-0.6,-0.47,0.6
241.076,-0.56,-0.44,0.61
241.086,-0.65,-0.47,0.49
241.096,-0.73,-0.52,0.41
241.106,-0.78,-0.47,0.38
241.116,-0.73,-0.39,0.38
241.126,-0.66,-0.3,0.39
241.136,-0.64,-0.24,0.29
241.146,-0.64,-0.18,0.22
241.157,-0.69,-0.17,0.2
241.166,-0.59,-0.18,0.26
241.177,-0.55,-0.18,0.33
241.187,-0.56,-0.22,0.34
241.197,-0.64,-0.27,0.33
241.207,-0.7,-0.37,0.31
241.217,-0.78,-0.47,0.32
241.227,-0.82,-0.56,0.38
241.237,-0.81,-0.69,0.41
241.247,-0.81,-0.73,0.36
241.257,-0.74,-0.65,0.4
241.267,-0.59,-0.52,0.5
241.277,-0.52,-0.37,0.66
241.287,-0.35,-0.31,0.76
241.298,-0.15,-0.26,0.78
241.308,0.02,-0.18,0.82
241.318,0.22,-0.12,0.81
241.328,0.47,-0.06,0.67
241.338,0.62,0.04,0.59
241.348,0.76,0.08,0.51
241.358,0.89,0.02,0.38
241.368,0.94,0.0,0.2
241.378,0.89,-0.0,0.09
241.388,0.89,-0.12,0.08
241.398,0.92,-0.2,0.09
241.408,0.91,-0.23,0.11
241.419,0.82,-0.32,0.11
241.428,0.71,-0.42,0.03
241.439,0.78,-0.47,-0.08
241.449,0.94,-0.46,-0.17
241.459,0.96,-0.48,-0.34
241.469,1.03,-0.6,-0.5
241.479,1.15,-0.68,-0.69
241.489,1.17,-0.7,-0.89
241.499,1.26,-0.6,-1.08
241.509,1.4,-0.41,-1.16
241.519,1.59,-0.3,-1.16
241.529,1.73,-0.23,-1.15
241.54,1.79,-0.12,-1.07
241.549,1.98,-0.11,-0.93
241.56,2.08,-0.12,-0.8
241.57,2.02,-0.16,-0.81
241.58,1.95,-0.14,-0.95
241.59,1.79,-0.02,-0.99
241.6,1.8,0.22,-0.86
241.61,1.92,0.54,-0.44
241.62,2.03,0.83,0.13
241.63,2.23,1.1,0.69
241.64,2.19,1.32,0.96
241.65,2.02,1.34,0.88
241.66,1.83,1.34,0.57
241.67,1.63,1.31,0.25
241.681,1.59,1.3,0.06
241.691,1.7,1.38,-0.08
241.701,1.83,1.45,-0.25
241.711,1.99,1.5,-0.39
241.721,2.14,1.46,-0.55
241.731,2.21,1.32,-0.64
241.741,2.27,1.13,-0.73
241.751,2.38,1.02,-0.79
241.761,2.47,0.95,-0.76
241.771,2.52,0.81,-0.8
241.781,2.35,0.69,-0.93
241.791,2.03,0.57,-1.04
241.801,1.71,0.36,-1.07
241.812,1.45,0.16,-1.04
241.822,1.21,0.03,-0.98
241.832,1.03,-0.12,-0.92
241.842,0.88,-0.27,-0.87
241.852,0.69,-0.33,-0.93
241.862,0.57,-0.32,-0.97
241.872,0.54,-0.21,-0.99
241.882,0.57,-0.09,-0.97
241.892,0.63,-0.01,-0.87
241.902,0.72,-0.02,-0.65
241.912,0.8,-0.19,-0.52
241.923,0.71,-0.3,-0.42
241.932,0.5,-0.34,-0.31
241.943,0.4,-0.34,-0.2
241.953,0.38,-0.29,-0.05
241.963,0.37,-0.2,0.07
241.973,0.33,-0.11,0.12
241.983,0.18,-0.1,0.18
241.993,0.1,-0.24,0.25
242.003,0.02,-0.39,0.31
242.013,-0.08,-0.51,0.31
242.023,-0.15,-0.58,0.26
242.033,-0.24,-0.58,0.23
242.043,-0.35,-0.6,0.17
242.053,-0.46,-0.65,0.12
242.064,-0.51,-0.64,0.05
242.074,-0.56,-0.54,-0.05
242.084,-0.6,-0.41,-0.07
242.094,-0.66,-0.34,-0.05
242.104,-0.73,-0.21,-0.15
242.114,-0.76,-0.01,-0.22
242.124,-0.78,0.23,-0.32
242.134,-0.73,0.47,-0.45
242.144,-0.66,0.63,-0.47
242.154,-0.59,0.72,-0.45
242.164,-0.57,0.63,-0.34
242.174,-0.58,0.42,-0.22
242.185,-0.75,0.22,-0.1
242.194,-1.04,0.05,-0.03
242.205,-1.33,-0.07,0.04
242.215,-1.54,-0.12,0.16
242.225,-1.63,-0.05,0.35
242.235,-1.62,-0.08,0.47
242.245,-1.55,-0.24,0.53
242.255,-1.54,-0.38,0.52
242.265,-1.53,-0.53,0.47
242.275,-1.55,-0.58,0.35
242.285,-1.59,-0.59,0.12
242.296,-1.66,-0.63,-0.01
242.306,-1.66,-0.65,0.09
242.315,-1.59,-0.6,0.34
242.326,-1.45,-0.56,0.65
242.336,-1.2,-0.49,0.9
242.346,-0.97,-0.37,0.98
242.356,-0.8,-0.39,0.93
242.366,-0.71,-0.52,0.86
242.376,-0.66,-0.58,0.74
242.386,-0.68,-0.58,0.53
242.396,-0.71,-0.45,0.28
242.406,-0.63,-0.18,0.06
242.416,-0.58,-0.06,-0.08
242.426,-0.56,-0.03,-0.04
242.436,-0.56,0.08,0.1
242.447,-0.48,0.06,0.26
242.457,-0.28,0.01,0.51
242.467,-0.12,0.06,0.68
242.477,0.0,0.12,0.65
242.487,0.12,0.21,0.38
242.497,0.22,0.37,0.02
242.507,0.34,0.58,-0.35
242.517,0.45,0.84,-0.83
242.527,0.68,1.15,-1.2
242.537,1.02,1.53,-1.36
242.547,1.42,1.75,-1.3
242.557,1.79,1.87,-1.11
242.568,1.93,1.83,-0.94
242.578,1.94,1.64,-0.78
242.588,1.83,1.43,-0.62
242.598,1.63,1.19,-0.4
242.608,1.43,0.86,-0.2
242.618,1.2,0.58,0.04
242.628,1.05,0.4,0.23
242.638,1.02,0.22,0.35
242.648,1.01,0.09,0.24
242.658,0.96,-0.06,-0.03
242.668,1.01,-0.23,-0.27
242.678,1.07,-0.39,-0.39
242.689,1.03,-0.52,-0.38
242.699,1.0,-0.68,-0.21
242.709,0.95,-0.81,-0.0
242.719,0.87,-0.86,0.13
242.729,0.74,-0.9,0.25
242.739,0.64,-0.9,0.33
242.749,0.61,-0.93,0.31
242.759,0.57,-0.89,0.24
242.769,0.5,-0.8,0.22
242.779,0.53,-0.76,0.22
242.789,0.6,-0.66,0.13
242.799,0.64,-0.57,0.09
242.809,0.62,-0.52,0.06
242.819,0.48,-0.57,0.01
242.83,0.27,-0.63,-0.02
242.84,0.07,-0.69,-0.01
242.85,-0.11,-0.76,0.01
242.86,-0.2,-0.77,0.02
242.87,-0.28,-0.71,-0.03
242.88,-0.32,-0.6,-0.14
242.89,-0.26,-0.51,-0.15
242.9,-0.18,-0.51,-0.1
242.91,-0.1,-0.46,-0.16
242.92,-0.11,-0.38,-0.24
242.93,-0.17,-0.33,-0.24
242.94,-0.19,-0.27,-0.2
242.951,-0.2,-0.26,-0.18
242.961,-0.28,-0.23,-0.19
242.971,-0.34,-0.09,-0.2
242.981,-0.33,0.02,-0.06
242.991,-0.1,0.14,0.12
243.001,0.06,0.34,0.14
243.011,0.11,0.57,0.02
243.021,0.13,0.67,-0.2
243.031,0.05,0.7,-0.45
243.041,-0.0,0.73,-0.61
243.051,0.01,0.74,-0.73
243.061,-0.02,0.72,-0.79
243.071,-0.04,0.62,-0.81
243.082,-0.14,0.4,-0.76
243.092,-0.31,0.14,-0.68
243.102,-0.55,-0.19,-0.46
243.112,-0.8,-0.61,-0.14
243.122,-1.01,-1.05,0.26
243.132,-1.17,-1.49,0.69
243.142,-1.26,-1.93,1.08
243.152,-1.35,-2.14,1.4
243.162,-1.33,-2.22,1.52
243.172,-1.06,-2.2,1.47
243.182,-0.73,-1.94,1.27
243.193,-0.52,-1.63,0.88
243.202,-0.63,-1.33,0.44
243.213,-1.15,-0.98,-0.09
243.223,-1.54,-0.73,-0.45
243.233,-1.66,-0.62,-0.35
243.243,-1.68,-0.55,0.21
243.253,-1.55,-0.5,0.94
243.263,-1.4,-0.55,1.51
243.273,-1.24,-0.58,1.97
243.283,-1.1,-0.49,2.24
243.293,-1.0,-0.3,2.24
243.303,-1.22,-0.02,1.55
243.313,-1.62,0.55,0.45
243.323,-1.88,1.2,-0.38
243.334,-1.93,1.76,-1.01
243.344,-2.04,2.24,-1.04
243.354,-2.06,2.4,-0.49
243.364,-1.89,2.31,0.2
243.374,-1.71,2.21,0.9
243.384,-1.64,2.06,1.3
243.394,-1.75,1.85,1.25
243.404,-1.98,1.75,0.8
243.414,-2.16,1.76,0.27
243.424,-2.05,1.78,-0.13
243.434,-1.83,1.78,-0.24
243.444,-1.66,1.76,-0.25
243.455,-1.5,1.71,-0.05
243.464,-1.21,1.52,0.3
243.475,-0.9,1.28,0.67
243.485,-0.57,1.1,1.14
243.495,-0.32,0.86,1.56
243.505,-0.11,0.57,1.76
243.515,-0.02,0.24,1.72
243.525,0.01,-0.05,1.42
243.535,-0.06,-0.23,1.02
243.545,-0.24,-0.34,0.63
243.555,-0.42,-0.58,0.23
243.565,-0.59,-0.74,-0.07
243.576,-0.76,-0.88,-0.25
243.585,-0.9,-0.96,-0.33
243.596,-0.99,-0.9,-0.29
243.606,-0.93,-0.82,-0.14
243.616,-0.86,-0.79,-0.1
243.626,-0.85,-0.76,-0.0
243.636,-0.81,-0.69,0.08
243.646,-0.78,-0.58,0.2
243.656,-0.75,-0.51,0.31
243.666,-0.78,-0.44,0.43
243.676,-0.75,-0.39,0.6
243.686,-0.71,-0.33,0.83
243.696,-0.71,-0.3,0.99
243.706,-0.69,-0.23,1.06
243.716,-0.67,-0.15,1.07
243.726,-0.63,-0.16,0.94
243.737,-0.58,-0.07,0.8
243.747,-0.65,0.03,0.7
243.757,-0.56,0.16,0.66
243.767,-0.46,0.22,0.56
243.777,-0.43,0.19,0.54
243.787,-0.35,0.17,0.51
243.797,-0.27,0.14,0.46
243.807,-0.23,0.12,0.41
243.817,-0.2,0.05,0.35
243.827,-0.14,0.02,0.24
243.838,-0.07,0.09,0.18
243.847,-0.02,0.1,0.18
243.858,0.04,0.08,0.13
243.868,0.2,0.04,0.1
243.878,0.33,0.02,0.12
243.888,0.52,0.04,0.11
243.898,0.71,0.12,0.04
243.908,0.79,0.18,0.0
243.918,0.96,0.19,-0.01
243.928,1.09,0.18,-0.05
243.938,1.15,0.15,-0.12
243.948,1.24,0.1,-0.1
