timestamp,ax,ay,az
185.319,-0.16,-0.24,1.03
185.329,-0.12,-0.3,1.05
185.339,-0.11,-0.38,1.01
185.349,0.02,-0.39,0.91
185.359,0.09,-0.37,0.75
185.369,0.21,-0.26,0.68
185.379,0.36,-0.15,0.71
185.389,0.67,0.07,0.78
185.4,0.93,0.2,0.74
185.41,1.06,0.27,0.62
185.42,1.13,0.35,0.45
185.43,1.12,0.31,0.33
185.44,1.1,0.29,0.29
185.45,1.1,0.27,0.29
185.46,1.04,0.17,0.17
185.47,0.92,0.04,0.0
185.48,0.84,-0.11,-0.11
185.49,0.79,-0.27,-0.17
185.5,0.71,-0.42,-0.21
185.51,0.66,-0.52,-0.32
185.521,0.62,-0.6,-0.39
185.531,0.73,-0.66,-0.42
185.541,0.84,-0.63,-0.44
185.551,0.91,-0.53,-0.47
185.561,1.03,-0.43,-0.48
185.571,1.18,-0.36,-0.51
185.581,1.33,-0.38,-0.47
185.591,1.39,-0.36,-0.43
185.601,1.36,-0.36,-0.43
185.611,1.31,-0.39,-0.43
185.621,1.3,-0.41,-0.48
185.631,1.27,-0.41,-0.5
185.641,1.19,-0.43,-0.48
185.651,1.17,-0.43,-0.45
185.662,1.14,-0.47,-0.4
185.672,1.15,-0.42,-0.33
185.682,1.1,-0.38,-0.22
185.692,1.02,-0.41,-0.17
185.702,0.81,-0.39,-0.16
185.712,0.5,-0.37,-0.22
185.722,0.14,-0.37,-0.37
185.732,-0.39,-0.27,-0.72
185.742,-1.02,0.06,-1.18
185.752,-1.55,0.41,-1.57
185.762,-1.9,0.64,-1.71
185.772,-2.09,0.92,-1.52
185.783,-2.16,0.99,-1.12
185.793,-1.98,0.88,-0.52
185.803,-1.68,0.73,-0.11
185.813,-1.51,0.6,-0.0
185.823,-1.31,0.47,0.02
185.833,-1.07,0.36,0.12
185.845,-0.88,0.38,0.2
185.853,-0.7,0.47,0.35
185.863,-0.45,0.53,0.66
185.873,-0.18,0.52,0.93
185.883,0.01,0.55,1.14
185.893,0.13,0.56,1.28
185.904,0.25,0.53,1.25
185.914,0.17,0.53,1.05
185.924,-0.0,0.5,0.81
185.934,-0.12,0.36,0.66
185.944,-0.27,0.25,0.64
185.954,-0.43,0.16,0.71
185.964,-0.5,-0.04,0.75
185.974,-0.53,-0.24,0.69
185.984,-0.61,-0.33,0.6
185.994,-0.66,-0.4,0.44
186.004,-0.61,-0.44,0.29
186.014,-0.46,-0.45,0.15
186.025,-0.33,-0.51,0.01
186.034,-0.28,-0.61,-0.1
186.045,-0.3,-0.66,-0.12
186.055,-0.4,-0.78,-0.04
186.065,-0.39,-0.95,0.08
186.075,-0.44,-1.03,0.19
186.085,-0.49,-1.12,0.34
186.095,-0.57,-1.24,0.44
186.105,-0.61,-1.23,0.52
186.115,-0.6,-1.07,0.58
186.125,-0.5,-0.84,0.67
186.135,-0.4,-0.67,0.72
186.145,-0.45,-0.44,0.69
186.155,-0.58,-0.28,0.58
186.166,-0.71,-0.2,0.4
186.176,-0.78,-0.07,0.26
186.186,-0.76,0.0,0.26
186.196,-0.75,0.09,0.29
186.206,-0.85,0.12,0.23
186.216,-0.94,0.06,0.29
186.226,-0.89,0.05,0.51
186.236,-0.68,0.09,0.77
186.246,-0.44,0.14,0.94
186.256,-0.19,0.29,0.91
186.266,0.06,0.52,0.68
186.276,0.32,0.64,0.53
186.287,0.66,0.78,0.47
186.296,0.98,0.92,0.35
186.307,1.06,1.04,0.17
186.317,1.07,1.02,-0.02
186.327,1.13,0.88,-0.08
186.337,1.18,0.65,0.04
186.347,1.25,0.36,0.33
186.357,1.3,0.05,0.56
186.367,1.25,-0.2,0.62
186.379,1.14,-0.39,0.52
186.387,1.07,-0.53,0.45
186.397,1.05,-0.67,0.34
186.408,0.87,-0.81,0.15
186.417,0.62,-0.83,-0.0
186.428,0.53,-0.8,-0.04
186.438,0.53,-0.71,0.0
186.448,0.56,-0.54,0.07
186.458,0.62,-0.37,0.18
186.468,0.66,-0.29,0.17
186.478,0.74,-0.25,0.15
186.488,0.81,-0.23,0.08
186.498,0.87,-0.16,-0.03
186.508,0.91,-0.0,-0.21
186.518,0.87,0.18,-0.49
186.528,0.71,0.32,-0.92
186.538,0.62,0.44,-1.32
186.549,0.61,0.51,-1.51
186.559,0.56,0.56,-1.6
186.569,0.56,0.59,-1.48
186.579,0.71,0.7,-1.23
186.589,0.99,0.91,-1.07
186.599,1.31,1.06,-0.98
186.609,1.43,1.09,-1.07
186.619,1.54,1.14,-1.28
186.629,1.63,1.02,-1.52
186.639,1.78,0.88,-1.67
186.649,2.07,0.8,-1.63
186.659,2.35,0.67,-1.47
186.67,2.55,0.41,-1.41
186.679,2.63,0.08,-1.46
186.69,2.64,-0.2,-1.53
186.7,2.6,-0.46,-1.65
186.71,2.48,-0.62,-1.81
186.72,2.19,-0.67,-1.89
186.73,1.81,-0.71,-1.86
186.74,1.41,-0.79,-1.62
186.75,1.26,-0.86,-1.23
186.76,1.28,-0.87,-0.82
186.77,1.32,-0.81,-0.5
186.78,1.34,-0.69,-0.31
186.79,1.39,-0.54,-0.17
186.8,1.42,-0.41,-0.15
186.811,1.37,-0.28,-0.2
186.821,1.39,-0.11,-0.26
186.831,1.53,0.16,-0.32
186.841,1.59,0.45,-0.38
186.851,1.49,0.63,-0.52
186.861,1.47,0.67,-0.55
186.871,1.4,0.61,-0.35
186.881,1.34,0.44,-0.06
186.891,1.24,0.3,0.15
186.901,1.03,0.15,0.33
186.911,0.87,-0.04,0.46
186.921,0.67,-0.21,0.46
186.932,0.49,-0.26,0.47
186.942,0.42,-0.31,0.44
186.952,0.44,-0.32,0.34
186.962,0.49,-0.17,0.25
186.972,0.56,-0.04,0.23
186.982,0.66,-0.02,0.18
186.992,0.67,-0.0,0.21
187.002,0.67,-0.06,0.34
187.012,0.64,-0.15,0.48
187.022,0.51,-0.2,0.56
187.032,0.35,-0.22,0.48
187.042,0.23,-0.19,0.18
187.053,0.19,-0.1,-0.08
187.062,0.11,-0.01,-0.28
187.073,0.16,0.09,-0.31
187.083,0.24,0.2,-0.31
187.093,0.19,0.22,-0.39
187.103,0.11,0.17,-0.4
187.113,-0.01,0.15,-0.46
187.123,-0.22,0.1,-0.51
187.133,-0.39,0.06,-0.42
187.143,-0.43,0.02,-0.28
187.153,-0.41,0.02,-0.17
187.163,-0.48,-0.04,-0.11
187.174,-0.51,-0.16,-0.07
187.183,-0.57,-0.36,-0.04
187.194,-0.67,-0.45,-0.14
187.204,-0.82,-0.52,-0.29
187.214,-0.97,-0.58,-0.29
187.224,-1.09,-0.68,-0.23
187.234,-1.28,-0.81,-0.21
187.244,-1.47,-0.94,-0.26
187.254,-1.65,-1.02,-0.24
187.264,-1.73,-1.01,-0.08
187.274,-1.71,-0.9,0.16
187.284,-1.58,-0.8,0.44
187.295,-1.38,-0.68,0.62
187.304,-1.2,-0.53,0.66
187.315,-1.11,-0.38,0.58
187.325,-1.04,-0.31,0.46
187.335,-0.72,-0.12,0.39
187.345,-0.51,-0.01,0.05
187.355,-0.42,0.13,-0.45
187.365,-0.5,0.26,-0.94
187.375,-0.52,0.31,-1.29
187.385,-0.53,0.35,-1.32
187.395,-0.5,0.26,-1.15
187.405,-0.47,0.09,-0.94
187.415,-0.56,-0.06,-0.85
187.425,-0.56,-0.17,-0.78
187.436,-0.56,-0.2,-0.71
187.445,-0.57,-0.2,-0.66
187.456,-0.53,-0.02,-0.72
187.466,-0.49,0.27,-0.74
187.476,-0.34,0.49,-0.71
187.486,-0.11,0.77,-0.7
187.496,0.14,1.06,-0.7
187.506,0.49,1.24,-0.61
187.516,0.97,1.29,-0.38
187.526,1.42,1.17,0.09
187.536,1.76,0.98,0.7
187.546,2.08,0.87,1.1
187.556,2.27,0.71,1.27
187.566,2.26,0.6,1.18
187.577,1.89,0.42,0.75
187.587,1.54,0.24,0.27
187.597,1.33,0.1,-0.21
187.607,1.28,0.03,-0.63
187.617,1.23,0.06,-0.92
187.627,1.1,0.12,-0.97
187.637,0.98,0.14,-0.86
187.647,1.0,0.13,-0.49
187.657,1.09,0.08,-0.0
187.667,1.2,0.06,0.42
187.677,1.2,0.06,0.64
187.687,1.0,0.02,0.64
187.698,0.97,0.04,0.57
187.708,1.09,0.34,0.54
187.718,1.23,0.63,0.4
187.728,1.28,0.73,0.11
187.738,1.22,0.74,-0.16
187.748,1.23,0.71,-0.12
187.758,1.23,0.5,0.12
187.768,1.21,0.2,0.45
187.778,1.11,-0.02,0.78
187.788,0.91,-0.29,0.93
187.798,0.78,-0.56,0.93
187.808,0.66,-0.68,0.83
187.819,0.5,-0.74,0.61
187.829,0.3,-0.87,0.41
187.839,0.15,-0.91,0.19
187.849,0.1,-0.93,0.06
187.859,0.06,-0.94,-0.01
187.869,0.08,-0.87,-0.03
187.879,0.11,-0.78,0.04
187.889,0.17,-0.73,0.08
187.899,0.21,-0.68,0.08
187.909,0.07,-0.7,0.03
187.919,-0.03,-0.69,-0.06
187.929,-0.05,-0.5,-0.15
187.94,-0.02,-0.3,-0.23
187.949,0.04,-0.21,-0.3
187.96,0.08,-0.11,-0.36
187.97,0.15,0.05,-0.32
187.98,0.08,0.11,-0.28
187.99,0.03,0.09,-0.24
188.0,-0.13,-0.01,-0.07
188.01,-0.34,-0.22,0.08
188.02,-0.54,-0.45,0.15
188.03,-0.83,-0.63,0.1
188.04,-1.07,-0.73,-0.04
188.05,-1.3,-0.75,-0.17
188.06,-1.45,-0.73,-0.13
188.07,-1.4,-0.7,0.09
188.081,-1.16,-0.61,0.32
188.091,-0.96,-0.53,0.5
188.101,-0.76,-0.47,0.6
188.111,-0.6,-0.44,0.65
188.121,-0.46,-0.45,0.67
188.131,-0.3,-0.37,0.68
188.141,-0.28,-0.31,0.57
188.151,-0.3,-0.25,0.39
188.161,-0.38,-0.18,0.18
188.171,-0.54,-0.12,-0.03
188.181,-0.7,-0.1,-0.21
188.191,-0.78,-0.0,-0.18
188.202,-0.72,0.16,0.08
188.211,-0.64,0.28,0.63
188.222,-0.51,0.38,1.23
188.232,-0.43,0.45,1.66
188.242,-0.4,0.44,1.94
188.252,-0.32,0.47,2.12
188.262,-0.26,0.44,2.07
188.272,-0.48,0.5,1.84
188.282,-0.8,0.53,1.43
188.292,-0.92,0.58,1.03
188.302,-1.08,0.77,0.81
188.312,-1.18,0.93,0.58
188.323,-1.21,1.1,0.28
188.333,-1.34,1.22,-0.04
188.343,-1.4,1.25,-0.19
188.353,-1.26,1.34,-0.09
188.363,-0.99,1.45,0.09
188.373,-0.81,1.45,0.27
188.383,-0.77,1.38,0.32
188.393,-0.85,1.33,0.28
188.403,-0.96,1.26,0.16
188.413,-1.19,1.2,0.14
188.423,-1.43,1.18,0.37
188.433,-1.59,1.05,0.65
188.443,-1.62,0.84,0.78
188.453,-1.68,0.56,0.72
188.464,-1.79,0.3,0.47
188.474,-1.81,0.08,0.17
188.484,-1.76,-0.18,-0.18
188.494,-1.78,-0.39,-0.35
188.504,-1.81,-0.52,-0.4
188.514,-1.72,-0.59,-0.43
188.524,-1.62,-0.67,-0.34
188.534,-1.51,-0.65,-0.06
188.544,-1.3,-0.58,0.31
188.554,-1.12,-0.6,0.64
188.564,-1.0,-0.69,0.88
188.574,-0.89,-0.76,1.03
188.585,-0.71,-0.77,1.11
188.595,-0.52,-0.68,1.09
188.605,-0.26,-0.51,0.93
188.615,-0.19,-0.31,0.58
188.625,-0.2,-0.12,0.17
188.635,-0.21,-0.0,-0.22
188.645,-0.29,-0.14,-0.48
188.655,-0.47,-0.31,-0.62
188.665,-0.73,-0.41,-0.68
188.675,-0.92,-0.58,-0.73
188.685,-1.07,-0.68,-0.72
188.695,-1.23,-0.69,-0.55
188.705,-1.18,-0.74,-0.3
188.715,-0.97,-0.76,0.01
188.726,-0.77,-0.73,0.32
188.736,-0.6,-0.7,0.41
188.746,-0.51,-0.57,0.37
188.756,-0.47,-0.44,0.34
188.766,-0.32,-0.27,0.35
188.776,-0.19,-0.17,0.34
188.786,-0.12,-0.11,0.44
188.796,0.06,-0.03,0.73
188.806,0.4,0.03,1.12
188.816,0.8,0.2,1.39
188.826,1.11,0.41,1.38
188.836,1.34,0.58,1.11
188.847,1.5,0.77,0.74
188.856,1.66,0.84,0.36
188.867,1.85,0.86,0.13
188.877,1.91,0.85,0.02
188.887,1.93,0.81,-0.02
188.897,1.87,0.7,-0.12
188.907,1.75,0.69,-0.26
188.917,1.62,0.57,-0.38
188.927,1.44,0.36,-0.39
188.937,1.33,0.36,-0.3
188.947,1.26,0.28,-0.17
188.957,1.24,0.14,-0.1
188.967,1.18,0.01,-0.03
188.977,1.12,-0.11,0.01
188.988,1.17,-0.31,0.01
188.998,1.17,-0.48,-0.12
189.008,1.07,-0.6,-0.4
189.018,0.98,-0.57,-0.72
189.028,0.92,-0.43,-0.97
189.038,0.87,-0.36,-1.1
189.048,0.84,-0.26,-1.06
189.058,0.89,-0.19,-0.84
189.068,0.99,-0.17,-0.41
189.078,1.15,-0.17,0.1
189.088,1.42,-0.15,0.56
189.098,1.53,-0.09,0.88
189.109,1.52,0.07,0.94
189.119,1.56,0.24,0.79
189.129,1.49,0.36,0.5
189.139,1.3,0.34,0.26
189.149,1.11,0.25,0.0
189.159,0.96,0.12,-0.17
189.169,0.68,-0.12,-0.16
189.179,0.4,-0.52,-0.09
189.189,0.05,-0.97,-0.05
189.199,-0.34,-1.36,-0.05
189.209,-0.65,-1.52,-0.28
189.219,-0.94,-1.48,-0.56
189.23,-1.14,-1.35,-0.78
189.239,-1.3,-1.13,-0.89
189.25,-1.28,-0.88,-0.7
189.26,-1.03,-0.52,-0.43
189.27,-0.78,-0.18,-0.34
189.28,-0.77,0.13,-0.54
189.29,-0.85,0.44,-0.9
189.3,-0.97,0.59,-1.31
189.31,-1.02,0.61,-1.55
189.32,-1.12,0.69,-1.35
189.33,-1.31,0.7,-0.85
189.34,-1.5,0.64,-0.21
189.35,-1.66,0.67,0.38
189.36,-1.5,0.75,0.88
189.371,-1.16,0.87,1.13
189.381,-0.88,1.06,1.06
189.391,-0.72,1.26,0.82
189.401,-0.6,1.34,0.65
189.411,-0.48,1.24,0.48
189.421,-0.51,1.1,0.45
189.431,-0.52,0.94,0.57
189.441,-0.55,0.65,0.73
189.451,-0.61,0.32,0.81
189.461,-0.77,-0.01,0.8
189.472,-0.95,-0.32,0.78
189.481,-1.03,-0.49,0.9
189.492,-0.95,-0.61,1.05
189.502,-0.81,-0.55,1.08
189.512,-0.72,-0.5,0.84
189.522,-0.74,-0.4,0.46
189.532,-0.81,-0.36,0.17
189.542,-0.8,-0.36,0.04
189.552,-0.81,-0.35,0.11
189.562,-0.72,-0.34,0.32
189.572,-0.65,-0.37,0.49
189.582,-0.74,-0.42,0.55
189.592,-0.72,-0.46,0.6
189.602,-0.74,-0.41,0.59
189.613,-0.77,-0.35,0.5
189.622,-0.84,-0.38,0.4
189.633,-0.87,-0.35,0.26
189.643,-0.79,-0.23,0.19
189.653,-0.75,-0.14,0.11
189.663,-0.8,-0.14,0.12
189.673,-0.7,-0.03,0.2
189.683,-0.66,-0.01,0.2
189.693,-0.6,0.03,0.04
189.703,-0.58,0.07,-0.05
189.713,-0.44,0.02,0.14
189.723,-0.25,0.01,0.52
189.733,-0.11,0.06,0.76
189.743,0.07,0.12,0.8
189.754,0.22,0.18,0.73
189.764,0.45,0.37,0.54
189.774,0.65,0.61,0.29
189.784,0.81,0.72,-0.02
189.794,0.99,0.71,-0.18
189.804,1.18,0.64,-0.06
189.814,1.35,0.43,0.17
189.824,1.43,0.13,0.38
189.834,1.39,-0.17,0.48
189.844,1.29,-0.43,0.37
189.855,1.06,-0.62,0.11
189.864,0.83,-0.74,-0.19
189.875,0.75,-0.84,-0.39
189.885,0.82,-0.85,-0.46
189.895,0.88,-0.85,-0.5
189.905,1.02,-0.86,-0.43
189.915,1.17,-0.78,-0.38
189.925,1.32,-0.75,-0.27
189.935,1.46,-0.75,-0.18
189.945,1.63,-0.7,-0.07
189.955,1.89,-0.63,-0.05
189.965,2.13,-0.51,-0.21
189.975,2.17,-0.38,-0.65
189.985,2.09,-0.29,-1.24
189.996,2.0,-0.09,-1.74
190.006,1.87,0.18,-1.98
190.016,1.79,0.53,-2.02
190.026,1.74,0.83,-1.81
190.036,1.75,1.12,-1.49
190.046,1.82,1.34,-1.14
190.056,1.91,1.47,-0.78
190.066,1.93,1.46,-0.49
190.076,2.01,1.4,-0.32
190.086,2.05,1.35,-0.08
190.096,2.03,1.28,0.27
190.106,2.0,1.12,0.34
190.116,1.96,0.79,0.07
190.126,1.92,0.51,-0.38
190.137,1.85,0.2,-0.81
190.147,1.81,-0.11,-1.01
190.157,1.9,-0.29,-0.87
190.167,2.15,-0.44,-0.36
190.177,2.48,-0.53,0.07
190.187,2.5,-0.54,0.3
190.197,2.35,-0.58,0.41
190.207,2.11,-0.57,0.23
190.217,1.73,-0.47,-0.1
190.227,1.44,-0.24,-0.4
190.238,1.22,0.03,-0.65
190.247,1.05,0.21,-0.78
190.258,0.89,0.42,-0.66
190.268,1.11,0.53,-0.36
190.278,1.25,0.52,-0.08
190.288,1.24,0.5,0.06
190.298,1.16,0.49,0.09
190.308,1.03,0.42,0.02
