timestamp,ax,ay,az
204.476,1.26,-1.4,-1.14
204.486,1.0,-1.47,-1.21
204.496,0.83,-1.61,-1.23
204.506,0.78,-1.68,-1.06
204.516,0.76,-1.65,-0.8
204.526,0.77,-1.6,-0.5
204.536,0.79,-1.54,-0.29
204.546,0.79,-1.49,-0.18
204.556,0.78,-1.41,-0.13
204.566,0.75,-1.3,-0.07
204.577,0.78,-1.21,-0.0
204.586,0.85,-1.17,0.07
204.597,0.88,-1.13,0.15
204.607,0.86,-1.07,0.18
204.617,0.83,-1.06,0.2
204.627,0.88,-1.0,0.23
204.637,0.88,-0.89,0.25
204.647,0.78,-0.85,0.23
204.657,0.7,-0.82,0.22
204.667,0.55,-0.84,0.24
204.677,0.47,-0.9,0.22
204.687,0.39,-0.94,0.16
204.698,0.34,-0.98,0.21
204.707,0.36,-0.97,0.24
204.718,0.34,-0.84,0.34
204.728,0.4,-0.61,0.57
204.738,0.61,-0.42,0.66
204.748,0.84,-0.24,0.61
204.758,1.01,-0.12,0.52
204.768,1.08,-0.13,0.37
204.778,1.14,-0.11,0.2
204.788,1.1,-0.04,-0.12
204.798,0.84,-0.14,-0.58
204.808,0.51,-0.26,-1.01
204.818,0.03,-0.38,-1.36
204.828,-0.55,-0.5,-1.52
204.839,-1.01,-0.64,-1.47
204.849,-1.37,-0.78,-1.06
204.859,-1.49,-0.95,-0.4
204.869,-1.51,-1.13,0.21
204.879,-1.39,-1.21,0.69
204.889,-1.3,-1.21,0.93
204.899,-1.31,-1.14,0.86
204.909,-1.33,-1.01,0.6
204.919,-1.25,-0.71,0.41
204.929,-1.21,-0.35,0.33
204.939,-1.18,-0.07,0.41
204.949,-1.23,0.09,0.54
204.96,-1.29,0.22,0.64
204.969,-1.42,0.38,0.78
204.98,-1.44,0.46,1.01
204.99,-1.52,0.6,1.24
205.0,-1.76,0.9,1.32
205.01,-1.97,1.28,1.34
205.022,-2.05,1.69,1.36
205.03,-1.94,2.17,1.47
205.04,-1.66,2.63,1.56
205.05,-1.38,2.95,1.54
205.06,-1.29,3.11,1.54
205.07,-1.18,3.14,1.49
205.08,-1.13,3.1,1.35
205.09,-1.23,3.0,1.08
205.101,-1.43,2.79,0.77
205.111,-1.69,2.62,0.37
205.121,-1.99,2.47,-0.01
205.131,-2.16,2.35,-0.22
205.141,-2.2,2.39,-0.29
205.151,-2.23,2.43,-0.26
205.161,-2.21,2.28,-0.13
205.171,-2.18,1.94,0.2
205.181,-2.18,1.61,0.5
205.191,-2.09,1.27,0.8
205.201,-2.06,0.89,1.11
205.211,-2.01,0.44,1.4
205.222,-1.97,0.06,1.68
205.232,-1.73,-0.13,2.03
205.242,-1.4,-0.19,2.17
205.252,-1.07,-0.19,2.15
205.262,-0.8,-0.23,2.02
205.272,-0.68,-0.24,1.72
205.282,-0.59,-0.28,1.4
205.292,-0.46,-0.29,1.13
205.302,-0.41,-0.32,0.91
205.312,-0.53,-0.38,0.67
205.322,-0.74,-0.53,0.38
205.332,-1.02,-0.72,0.22
205.343,-1.16,-0.95,0.21
205.352,-1.24,-1.13,0.16
205.363,-1.34,-1.15,0.04
205.373,-1.4,-0.98,0.09
205.383,-1.46,-0.87,0.19
205.393,-1.34,-0.87,0.16
205.403,-1.19,-0.73,0.23
205.413,-1.02,-0.54,0.34
205.423,-0.75,-0.43,0.57
205.433,-0.7,-0.42,0.58
205.443,-0.6,-0.35,0.65
205.453,-0.44,-0.27,0.81
205.464,-0.43,-0.3,0.9
205.473,-0.4,-0.31,0.79
205.484,-0.36,-0.34,0.69
205.494,-0.28,-0.37,0.72
205.504,-0.08,-0.18,0.8
205.514,0.21,0.11,0.88
205.524,0.57,0.33,0.81
205.534,0.88,0.43,0.73
205.544,1.04,0.49,0.73
205.554,1.24,0.47,0.64
205.564,1.31,0.4,0.57
205.574,1.23,0.45,0.73
205.584,1.48,0.41,0.67
205.594,1.41,0.31,0.76
205.605,1.35,0.18,0.86
205.614,1.4,0.01,0.85
205.625,1.32,-0.21,0.94
205.635,1.41,-0.39,1.14
205.645,1.51,-0.57,1.41
205.655,1.58,-0.81,1.61
205.665,1.68,-0.98,1.5
205.675,1.77,-1.06,1.23
205.685,1.76,-1.15,0.71
205.695,1.75,-1.25,0.07
205.705,1.72,-1.33,-0.46
205.715,1.65,-1.4,-0.97
205.726,1.69,-1.41,-1.27
205.735,1.84,-1.23,-1.32
205.746,2.13,-0.93,-1.2
205.756,2.42,-0.75,-1.04
205.766,2.54,-0.66,-0.83
205.776,2.57,-0.68,-0.52
205.786,2.6,-0.7,-0.05
205.796,2.79,-0.67,0.6
205.806,2.81,-0.61,0.99
205.816,2.76,-0.58,0.93
205.826,2.62,-0.41,0.66
205.836,2.33,-0.01,0.21
205.847,2.15,0.45,-0.3
205.856,2.09,0.83,-0.64
205.867,2.05,1.13,-0.88
205.877,2.07,1.38,-1.03
205.887,2.08,1.48,-0.99
205.897,2.06,1.42,-0.85
205.907,2.07,1.28,-0.78
205.917,2.11,1.11,-0.78
205.927,2.09,0.99,-0.81
205.937,2.02,0.73,-0.85
205.947,2.03,0.48,-0.77
205.957,2.13,0.33,-0.61
205.968,2.19,0.26,-0.44
205.977,2.24,0.17,-0.3
205.988,2.24,0.02,-0.18
205.997,2.27,-0.22,0.0
206.008,2.22,-0.39,0.29
206.018,2.03,-0.57,0.4
206.028,1.77,-0.76,0.37
206.038,1.54,-0.87,0.33
206.048,1.27,-0.94,0.23
206.058,0.94,-0.89,0.11
206.068,0.7,-0.8,-0.01
206.078,0.64,-0.74,-0.13
206.088,0.69,-0.55,-0.18
206.098,0.77,-0.31,-0.27
206.109,0.86,-0.29,-0.47
206.118,0.84,-0.31,-0.68
206.129,0.78,-0.31,-0.68
206.139,0.78,-0.28,-0.64
206.149,0.7,-0.28,-0.55
206.159,0.68,-0.33,-0.48
206.169,0.53,-0.4,-0.54
206.179,0.22,-0.51,-0.62
206.189,0.0,-0.58,-0.68
206.199,-0.16,-0.56,-0.63
206.209,-0.26,-0.46,-0.53
206.219,-0.31,-0.37,-0.38
206.23,-0.32,-0.24,-0.13
206.239,-0.22,-0.12,0.16
206.25,-0.14,-0.03,0.31
206.26,-0.19,0.06,0.4
206.27,-0.26,0.08,0.44
206.28,-0.34,0.09,0.46
206.29,-0.42,0.08,0.36
206.3,-0.48,0.06,0.23
206.31,-0.44,0.13,0.15
206.32,-0.5,0.19,0.04
206.33,-0.6,0.16,-0.09
206.34,-0.65,0.15,-0.21
206.35,-0.77,0.19,-0.2
206.36,-0.89,0.06,-0.14
206.371,-0.98,-0.08,0.06
206.38,-1.07,-0.13,0.29
206.391,-1.06,-0.17,0.51
206.401,-1.07,-0.19,0.65
206.411,-1.12,-0.16,0.65
206.421,-1.19,-0.14,0.52
206.431,-1.28,-0.16,0.35
206.441,-1.37,-0.18,0.17
206.451,-1.44,-0.16,-0.03
206.461,-1.46,-0.03,-0.17
206.472,-1.46,0.13,-0.28
206.481,-1.5,0.22,-0.34
206.492,-1.62,0.22,-0.31
206.501,-1.67,0.15,-0.19
206.512,-1.79,0.09,-0.1
206.522,-1.93,-0.01,0.06
206.532,-2.05,-0.12,0.26
206.542,-2.14,-0.13,0.46
206.552,-2.11,-0.13,0.66
206.562,-2.1,0.07,0.83
206.572,-2.05,0.43,0.93
206.582,-2.03,0.81,0.79
206.592,-1.97,1.32,0.55
206.602,-1.82,1.87,0.34
206.612,-1.56,2.37,0.21
206.622,-1.3,2.81,0.25
206.633,-1.05,3.13,0.35
206.643,-0.82,3.31,0.4
206.653,-0.77,3.23,0.42
206.663,-0.8,3.02,0.36
206.673,-0.92,2.77,0.16
206.683,-1.01,2.42,-0.0
206.693,-1.1,2.06,-0.08
206.703,-1.32,1.75,-0.18
206.713,-1.59,1.47,-0.34
206.723,-1.94,1.16,-0.52
206.734,-2.21,0.86,-0.64
206.743,-2.29,0.62,-0.58
206.754,-2.18,0.49,-0.35
206.764,-2.09,0.36,-0.2
206.774,-2.12,0.19,-0.25
206.784,-2.17,0.01,-0.31
206.794,-2.14,-0.1,-0.36
206.804,-2.03,-0.18,-0.36
206.814,-1.83,-0.17,-0.21
206.824,-1.65,-0.18,-0.07
206.834,-1.56,-0.21,-0.01
206.844,-1.46,-0.16,-0.05
206.854,-1.43,-0.15,-0.11
206.864,-1.39,-0.19,-0.04
206.875,-1.33,-0.23,0.11
206.885,-1.19,-0.25,0.28
206.895,-1.06,-0.27,0.34
206.905,-1.06,-0.3,0.3
206.915,-1.11,-0.26,0.16
206.925,-1.1,-0.28,0.08
206.935,-1.01,-0.23,0.12
206.945,-1.03,-0.21,0.15
206.955,-1.05,-0.3,0.16
206.965,-1.04,-0.39,0.28
206.975,-0.98,-0.38,0.5
206.985,-0.88,-0.41,0.69
206.996,-0.85,-0.42,0.8
207.005,-0.74,-0.4,0.72
207.016,-0.73,-0.36,0.51
207.026,-0.78,-0.35,0.33
207.036,-0.71,-0.33,0.25
207.046,-0.57,-0.31,0.33
207.056,-0.44,-0.25,0.4
207.066,-0.22,-0.21,0.43
207.076,-0.01,-0.19,0.49
207.086,0.22,-0.16,0.57
207.096,0.48,-0.16,0.65
207.106,0.7,-0.16,0.67
207.116,0.81,-0.14,0.59
207.126,0.81,-0.16,0.44
207.137,0.8,-0.18,0.28
207.146,0.79,-0.17,0.19
207.157,0.8,-0.16,0.26
207.167,0.89,-0.21,0.52
207.177,1.1,-0.29,0.87
207.187,1.29,-0.37,1.13
207.197,1.4,-0.48,1.2
207.207,1.51,-0.66,1.32
207.217,1.51,-0.82,1.21
207.227,1.48,-0.94,0.96
207.237,1.41,-0.97,0.64
207.247,1.25,-1.0,0.29
207.258,1.0,-1.06,-0.02
207.268,0.8,-1.16,-0.26
207.278,0.56,-1.23,-0.44
207.288,0.27,-1.27,-0.54
207.298,0.13,-1.31,-0.66
207.308,0.17,-1.28,-0.61
207.318,0.36,-1.17,-0.46
207.328,0.7,-0.98,-0.27
207.338,0.98,-0.87,-0.26
207.348,1.11,-0.93,-0.24
207.358,1.33,-0.98,0.02
207.368,1.52,-0.9,0.42
207.379,1.73,-0.81,0.94
207.388,1.85,-0.68,1.29
207.399,1.96,-0.4,1.48
207.409,1.99,-0.09,1.32
207.419,1.93,0.26,0.64
207.429,1.74,0.71,-0.31
207.439,1.45,1.24,-1.06
207.449,1.54,1.7,-1.47
207.459,1.82,2.21,-1.52
207.469,2.16,2.58,-1.32
207.479,2.53,2.62,-1.27
207.489,2.82,2.51,-1.15
207.5,2.94,2.3,-1.2
207.509,2.86,1.94,-1.51
207.52,2.67,1.54,-1.86
207.529,2.36,1.22,-2.07
207.54,2.1,0.87,-2.14
207.55,1.96,0.54,-2.04
207.56,1.87,0.38,-1.99
207.57,1.81,0.29,-1.89
207.58,1.72,0.24,-1.81
207.59,1.71,0.09,-1.72
207.6,1.76,-0.08,-1.52
207.61,1.88,-0.18,-1.27
207.62,1.99,-0.31,-1.07
207.63,1.91,-0.45,-0.99
207.641,1.76,-0.61,-1.0
207.65,1.63,-0.78,-1.02
207.661,1.39,-1.02,-1.0
207.671,1.16,-1.26,-1.08
207.681,0.94,-1.39,-1.11
207.691,0.81,-1.53,-1.03
207.701,0.82,-1.63,-1.0
207.711,0.63,-1.71,-0.97
207.721,0.45,-1.8,-1.02
207.731,0.42,-1.77,-1.04
207.741,0.3,-1.65,-0.94
207.751,0.28,-1.63,-0.76
207.762,0.19,-1.61,-0.61
207.771,0.09,-1.54,-0.45
207.782,0.01,-1.55,-0.27
207.792,0.05,-1.55,-0.1
207.802,0.09,-1.48,0.05
207.812,0.15,-1.31,0.16
207.822,0.29,-1.1,0.23
207.832,0.31,-0.99,0.16
207.842,0.31,-0.88,0.08
207.852,0.35,-0.82,0.07
207.862,0.38,-0.75,0.2
207.872,0.45,-0.67,0.36
207.883,0.46,-0.57,0.47
207.892,0.47,-0.47,0.57
207.903,0.38,-0.36,0.61
207.913,0.18,-0.3,0.55
207.923,-0.03,-0.28,0.47
207.933,-0.24,-0.24,0.4
207.943,-0.41,-0.2,0.44
207.953,-0.44,-0.09,0.6
207.963,-0.44,0.08,0.72
207.973,-0.53,0.21,0.73
207.983,-0.51,0.42,0.79
207.993,-0.51,0.7,0.82
208.003,-0.57,0.8,0.77
208.013,-0.66,0.79,0.7
208.024,-0.82,0.74,0.81
208.034,-0.96,0.55,0.98
208.044,-1.06,0.26,1.16
208.054,-1.16,-0.09,1.42
208.064,-1.31,-0.55,1.62
208.074,-1.52,-1.02,1.77
208.084,-1.68,-1.42,1.82
208.094,-1.91,-1.73,1.86
208.104,-2.01,-1.85,1.76
208.114,-2.04,-1.78,1.53
208.124,-2.07,-1.55,1.23
208.134,-2.03,-1.26,0.95
208.145,-1.92,-0.91,0.71
208.154,-2.0,-0.55,0.46
208.165,-2.11,-0.04,0.35
208.175,-2.23,0.58,0.35
208.185,-2.34,1.23,0.49
208.195,-2.24,1.9,0.93
208.205,-1.94,2.61,1.61
208.215,-1.49,3.12,2.27
208.225,-1.08,3.49,2.66
208.235,-0.86,3.72,2.64
208.245,-0.8,3.78,2.46
208.255,-0.82,3.76,2.4
208.265,-0.84,3.75,2.24
208.276,-0.87,3.63,1.98
208.286,-0.96,3.32,1.62
208.296,-1.15,2.93,1.32
208.306,-1.31,2.57,1.19
208.316,-1.44,2.21,1.18
208.326,-1.52,1.87,1.25
208.336,-1.51,1.55,1.38
208.346,-1.46,1.22,1.52
208.356,-1.48,0.96,1.53
208.366,-1.5,0.76,1.43
208.376,-1.56,0.6,1.3
208.386,-1.6,0.46,1.22
208.396,-1.57,0.36,1.27
208.407,-1.47,0.21,1.4
208.417,-1.39,0.09,1.49
208.427,-1.34,-0.05,1.45
208.437,-1.24,-0.24,1.35
208.447,-1.13,-0.44,1.25
208.457,-1.02,-0.61,1.12
208.467,-0.87,-0.67,1.0
208.477,-0.79,-0.67,0.86
208.487,-0.62,-0.7,0.66
208.497,-0.45,-0.59,0.44
208.507,-0.44,-0.45,0.19
208.517,-0.42,-0.42,-0.05
208.528,-0.32,-0.45,-0.07
208.537,-0.22,-0.45,-0.03
208.548,-0.09,-0.48,0.09
208.558,0.02,-0.47,0.25
208.568,-0.0,-0.54,0.3
208.578,-0.07,-0.64,0.15
208.588,-0.17,-0.66,-0.03
208.598,-0.26,-0.65,-0.19
208.608,-0.22,-0.68,-0.34
208.618,-0.26,-0.74,-0.46
208.628,-0.29,-0.77,-0.47
208.638,-0.17,-0.79,-0.31
208.649,0.06,-0.8,-0.02
208.658,0.34,-0.8,0.25
208.669,0.72,-0.69,0.44
208.678,1.15,-0.47,0.58
208.689,1.45,-0.28,0.6
208.699,1.61,-0.15,0.5
208.709,1.63,-0.11,0.3
208.719,1.53,-0.1,0.09
208.729,1.45,-0.15,-0.08
208.739,1.47,-0.19,-0.12
208.749,1.52,-0.23,-0.15
208.759,1.54,-0.36,-0.2
208.769,1.62,-0.44,-0.17
208.779,1.72,-0.49,-0.13
208.79,1.89,-0.52,-0.1
208.799,1.98,-0.51,-0.03
208.81,2.11,-0.59,-0.02
208.82,2.22,-0.67,-0.14
208.83,2.21,-0.7,-0.35
208.84,2.22,-0.71,-0.6
208.85,2.22,-0.68,-0.78
208.86,2.21,-0.7,-0.85
208.87,2.31,-0.72,-0.81
208.88,2.47,-0.66,-0.59
208.89,2.71,-0.73,-0.29
208.9,2.93,-0.82,0.07
208.911,3.21,-0.77,0.43
208.92,3.5,-0.72,0.76
208.931,3.86,-0.59,0.93
208.941,4.28,-0.35,1.13
208.951,4.48,-0.18,1.18
208.961,4.53,-0.14,0.91
208.971,4.14,-0.22,0.2
208.981,3.35,-0.06,-0.75
208.991,2.49,0.27,-1.48
209.001,1.79,0.62,-1.7
209.011,1.11,0.97,-1.88
209.021,0.84,1.3,-1.74
209.032,0.96,1.51,-1.32
209.041,1.18,1.61,-0.85
209.052,1.37,1.59,-0.6
209.062,1.56,1.55,-0.51
209.072,1.64,1.54,-0.5
209.082,1.74,1.48,-0.56
209.092,1.76,1.39,-0.48
209.102,1.66,1.24,-0.37
209.112,1.59,1.09,-0.2
209.122,1.46,1.01,0.11
209.132,1.3,0.8,0.35
209.142,1.13,0.44,0.53
209.152,0.95,0.12,0.69
209.162,0.83,-0.1,0.86
209.173,0.62,-0.22,0.9
209.183,0.46,-0.36,0.78
209.193,0.28,-0.47,0.64
209.203,0.15,-0.57,0.41
209.213,0.05,-0.54,0.1
209.223,-0.07,-0.49,0.01
209.233,-0.19,-0.53,-0.07
209.243,-0.25,-0.6,-0.21
209.253,-0.3,-0.66,-0.32
209.263,-0.35,-0.72,-0.39
209.273,-0.33,-0.69,-0.39
209.283,-0.22,-0.62,-0.35
209.294,-0.13,-0.45,-0.37
209.303,-0.12,-0.31,-0.46
209.314,-0.07,-0.22,-0.48
209.324,0.03,-0.09,-0.42
209.334,0.05,-0.06,-0.33
209.344,0.01,-0.15,-0.22
209.354,-0.03,-0.2,-0.07
209.364,-0.13,-0.21,0.09
209.374,-0.16,-0.23,0.24
209.385,-0.15,-0.18,0.33
209.394,-0.28,-0.11,0.37
209.404,-0.34,-0.05,0.32
209.415,-0.29,0.08,0.23
209.425,-0.25,0.2,0.03
209.435,-0.18,0.34,-0.21
209.445,-0.08,0.4,-0.4
209.455,-0.04,0.39,-0.48
209.465,-0.11,0.34,-0.55
