timestamp,ax,ay,az
118.869,-1.62,-0.72,0.58
118.879,-1.47,-0.56,0.7
118.889,-1.34,-0.45,0.84
118.899,-1.15,-0.35,0.95
118.909,-0.94,-0.23,1.03
118.919,-0.74,-0.01,1.14
118.929,-0.47,0.14,1.14
118.94,-0.37,0.29,1.03
118.949,-0.3,0.28,0.94
118.96,-0.32,0.17,0.78
118.97,-0.45,0.04,0.65
118.98,-0.61,-0.16,0.5
118.99,-0.83,-0.25,0.24
119.0,-1.01,-0.38,-0.02
119.01,-1.23,-0.38,-0.24
119.02,-1.56,-0.37,-0.41
119.03,-1.86,-0.45,-0.41
119.04,-2.09,-0.47,-0.18
119.05,-2.28,-0.37,-0.02
119.061,-2.41,-0.21,0.23
119.071,-2.41,0.09,0.66
119.081,-2.35,0.46,1.07
119.091,-2.2,0.98,1.39
119.101,-1.83,1.58,1.53
119.111,-1.52,2.13,1.44
119.121,-1.41,2.48,1.27
119.131,-1.34,2.75,1.23
119.141,-1.17,3.02,1.31
119.151,-0.94,3.06,1.42
119.161,-0.72,3.06,1.54
119.171,-0.56,2.98,1.64
119.181,-0.37,2.71,1.69
119.191,-0.36,2.39,1.63
119.202,-0.47,2.13,1.44
119.212,-0.64,1.86,1.12
119.222,-0.85,1.56,0.75
119.232,-1.06,1.34,0.46
119.242,-1.26,0.98,0.25
119.252,-1.5,0.68,0.22
119.262,-1.53,0.38,0.3
119.272,-1.47,0.21,0.53
119.282,-1.32,0.12,0.73
119.292,-1.15,0.08,0.86
119.302,-1.07,0.06,0.78
119.312,-0.99,0.03,0.57
119.323,-0.85,0.1,0.41
119.332,-0.73,0.15,0.38
119.343,-0.68,0.09,0.37
119.353,-0.69,0.06,0.27
119.363,-0.74,0.07,0.22
119.373,-0.67,0.01,0.26
119.383,-0.71,0.01,0.37
119.393,-0.77,-0.0,0.51
119.403,-0.74,-0.09,0.64
119.413,-0.72,-0.18,0.73
119.423,-0.78,-0.28,0.76
119.433,-0.77,-0.33,0.71
119.443,-0.74,-0.47,0.65
119.454,-0.86,-0.6,0.52
119.464,-0.89,-0.68,0.45
119.474,-0.87,-0.77,0.38
119.484,-0.89,-0.88,0.35
119.494,-0.94,-1.05,0.26
119.504,-1.14,-1.25,0.19
119.514,-1.5,-1.51,0.22
119.524,-1.82,-1.68,0.42
119.534,-1.91,-1.6,0.62
119.544,-1.77,-1.47,0.69
119.554,-1.49,-1.21,0.7
119.564,-1.09,-0.69,0.63
119.574,-0.25,-0.06,0.43
119.585,0.9,0.46,0.19
119.595,1.63,0.97,0.08
119.605,1.93,1.33,0.13
119.615,2.04,1.48,0.19
119.625,2.03,1.51,0.18
119.635,1.74,1.47,0.08
119.645,1.16,1.17,0.06
119.655,0.6,0.74,0.24
119.665,0.17,0.32,0.45
119.675,-0.07,0.05,0.57
119.685,-0.18,-0.18,0.49
119.695,-0.24,-0.34,0.08
119.705,-0.32,-0.45,-0.53
119.716,-0.42,-0.54,-1.09
119.726,-0.43,-0.63,-1.38
119.736,-0.36,-0.67,-1.34
119.746,-0.25,-0.73,-1.13
119.756,-0.17,-0.85,-0.84
119.766,-0.13,-1.06,-0.63
119.776,-0.11,-1.29,-0.58
119.786,-0.12,-1.42,-0.59
119.796,-0.17,-1.47,-0.68
119.806,-0.14,-1.46,-0.76
119.816,-0.07,-1.41,-0.87
119.826,0.0,-1.37,-1.03
119.837,0.06,-1.34,-1.18
119.847,0.19,-1.28,-1.31
119.857,0.36,-1.23,-1.32
119.867,0.46,-1.15,-1.21
119.877,0.64,-0.96,-1.03
119.887,0.86,-0.7,-0.85
119.897,1.18,-0.3,-0.59
119.907,1.7,0.31,-0.38
119.917,2.25,0.95,-0.19
119.927,2.78,1.62,-0.1
119.937,3.1,2.19,-0.06
119.947,3.31,2.57,-0.09
119.957,3.55,2.72,0.02
119.968,3.76,2.74,0.25
119.977,3.8,2.74,0.4
119.988,3.86,2.67,0.37
119.998,3.86,2.63,0.06
120.008,3.73,2.55,-0.52
120.018,3.44,2.27,-1.08
120.028,3.09,1.97,-1.47
120.038,2.81,1.68,-1.54
120.048,2.74,1.31,-1.22
120.058,2.66,0.94,-0.66
120.068,2.53,0.49,-0.17
120.078,2.32,0.03,0.1
120.089,2.09,-0.34,0.15
120.098,1.82,-0.6,0.12
120.109,1.65,-0.81,0.09
120.119,1.4,-0.94,0.08
120.129,1.25,-0.99,0.09
120.139,1.13,-0.98,0.12
120.149,0.95,-1.0,0.08
120.159,0.84,-0.93,0.03
120.169,0.84,-0.81,0.1
120.179,0.81,-0.76,0.2
120.189,0.7,-0.72,0.32
120.199,0.55,-0.7,0.35
120.209,0.44,-0.73,0.39
120.219,0.37,-0.74,0.4
120.23,0.26,-0.76,0.4
120.24,0.23,-0.71,0.32
120.25,0.16,-0.64,0.26
120.26,0.13,-0.68,0.13
120.27,0.03,-0.75,-0.04
120.28,-0.04,-0.84,-0.22
120.29,-0.08,-0.97,-0.39
120.3,-0.06,-1.05,-0.53
120.31,-0.04,-1.02,-0.67
120.32,0.01,-0.97,-0.81
120.33,-0.06,-0.93,-0.94
120.34,-0.12,-0.87,-1.02
120.351,-0.15,-0.77,-1.04
120.36,-0.12,-0.62,-0.93
120.371,0.03,-0.49,-0.74
120.381,0.13,-0.35,-0.46
120.391,0.09,-0.22,-0.36
120.401,0.09,-0.01,-0.3
120.411,0.1,0.23,-0.27
120.421,0.06,0.49,-0.32
120.431,0.01,0.64,-0.44
120.441,-0.05,0.63,-0.55
120.451,-0.06,0.55,-0.56
120.461,0.02,0.45,-0.48
120.472,-0.03,0.43,-0.24
120.481,-0.14,0.35,-0.01
120.492,-0.24,0.21,0.16
120.502,-0.32,0.1,0.26
120.512,-0.44,0.07,0.37
120.522,-0.5,-0.03,0.46
120.532,-0.57,-0.19,0.51
120.542,-0.67,-0.37,0.47
120.552,-0.86,-0.59,0.38
120.562,-1.04,-0.82,0.27
120.572,-1.17,-0.94,0.2
120.582,-1.23,-1.01,0.15
120.593,-1.25,-1.07,0.15
120.602,-1.35,-1.04,0.15
120.613,-1.4,-0.96,0.1
120.623,-1.39,-0.87,-0.0
120.633,-1.38,-0.76,-0.14
120.643,-1.4,-0.68,-0.28
120.653,-1.48,-0.68,-0.33
120.663,-1.61,-0.78,-0.25
120.673,-1.83,-0.85,-0.07
120.683,-1.98,-0.83,0.23
120.693,-2.09,-0.77,0.58
120.703,-2.17,-0.52,0.9
120.713,-2.12,-0.2,1.07
120.723,-1.88,0.16,1.03
120.734,-1.58,0.84,1.04
120.744,-1.54,1.6,1.05
120.754,-1.59,2.09,0.93
120.764,-1.53,2.29,0.56
120.774,-1.45,2.45,0.21
120.784,-1.3,2.56,0.02
120.794,-1.19,2.68,-0.08
120.804,-1.22,2.61,-0.15
120.814,-1.27,2.48,-0.22
120.824,-1.44,2.34,-0.27
120.834,-1.57,2.16,-0.24
120.844,-1.52,2.02,-0.08
120.855,-1.41,1.97,0.17
120.864,-1.22,1.96,0.48
120.875,-0.96,1.87,0.81
120.885,-0.76,1.63,1.01
120.895,-0.66,1.4,1.06
120.905,-0.6,1.11,1.11
120.915,-0.44,0.81,1.2
120.925,-0.48,0.46,1.15
120.935,-0.66,0.08,1.02
120.945,-0.91,-0.25,0.83
120.955,-1.18,-0.61,0.66
120.965,-1.41,-0.89,0.52
120.976,-1.47,-1.04,0.46
120.985,-1.47,-1.01,0.51
120.996,-1.5,-1.06,0.51
121.006,-1.46,-1.11,0.48
121.016,-1.36,-1.11,0.52
121.026,-1.26,-1.05,0.6
121.036,-1.22,-0.97,0.67
121.046,-1.18,-0.92,0.79
121.056,-1.11,-0.83,0.82
121.066,-1.08,-0.69,0.84
121.076,-1.04,-0.53,0.82
121.086,-1.01,-0.5,0.71
121.096,-0.95,-0.54,0.58
121.106,-0.95,-0.58,0.43
121.117,-0.95,-0.58,0.24
121.127,-0.94,-0.53,0.06
121.137,-1.0,-0.5,-0.14
121.147,-1.02,-0.51,-0.3
121.157,-0.94,-0.5,-0.3
121.167,-0.88,-0.51,-0.2
121.177,-0.89,-0.54,-0.1
121.187,-0.83,-0.61,-0.14
121.197,-0.8,-0.68,-0.17
121.207,-0.87,-0.75,-0.17
121.217,-0.88,-0.73,-0.16
121.227,-0.88,-0.59,-0.02
121.237,-0.83,-0.37,0.15
121.247,-0.68,-0.13,0.46
121.258,-0.39,0.08,0.77
121.268,-0.1,0.33,1.0
121.278,0.17,0.55,1.11
121.288,0.37,0.62,1.18
121.298,0.5,0.65,1.17
121.308,0.69,0.65,1.1
121.318,0.93,0.63,1.03
121.328,1.01,0.6,0.91
121.338,0.97,0.54,0.71
121.348,0.89,0.43,0.58
121.358,0.92,0.33,0.5
121.368,0.82,0.15,0.41
121.379,0.75,-0.0,0.3
121.389,0.69,-0.15,0.17
121.399,0.7,-0.27,0.1
121.409,0.8,-0.29,0.12
121.419,0.91,-0.37,0.14
121.429,1.07,-0.46,0.11
121.439,1.13,-0.51,0.01
121.449,1.07,-0.61,-0.23
121.459,1.02,-0.75,-0.46
121.469,0.98,-0.92,-0.64
121.479,1.03,-1.07,-0.74
121.489,1.01,-1.11,-0.9
121.5,0.93,-1.15,-1.09
121.51,0.84,-1.2,-1.28
121.52,0.87,-1.11,-1.44
121.53,0.96,-0.77,-1.53
121.54,1.08,-0.41,-1.61
121.55,1.3,-0.14,-1.64
121.56,1.52,0.16,-1.6
121.57,1.76,0.48,-1.49
121.58,1.99,0.82,-1.31
121.59,2.23,1.2,-1.04
121.6,2.41,1.55,-0.68
121.61,2.51,1.79,-0.27
121.621,2.68,1.93,0.16
121.63,2.86,1.96,0.54
121.641,3.02,1.92,0.76
121.651,3.05,1.96,0.97
121.661,3.16,1.98,1.04
121.671,3.24,1.94,0.95
121.681,3.04,1.74,0.72
121.691,2.69,1.42,0.37
121.701,2.37,1.08,-0.0
121.711,2.17,0.71,-0.17
121.721,2.13,0.41,-0.22
121.731,2.07,0.19,-0.31
121.741,1.93,-0.01,-0.5
121.751,1.84,-0.1,-0.75
121.762,1.73,-0.26,-0.95
121.772,1.71,-0.37,-0.98
121.782,1.61,-0.44,-0.96
121.792,1.47,-0.58,-0.8
121.802,1.32,-0.64,-0.53
121.812,1.19,-0.58,-0.25
121.822,1.06,-0.51,-0.04
121.832,1.04,-0.47,0.1
121.842,0.9,-0.52,0.19
121.852,0.82,-0.54,0.34
121.862,0.78,-0.46,0.56
121.873,0.8,-0.36,0.73
121.883,0.86,-0.27,0.84
121.893,0.81,-0.22,0.8
121.903,0.78,-0.22,0.72
121.913,0.67,-0.41,0.54
121.923,0.51,-0.54,0.29
121.933,0.49,-0.68,0.04
121.943,0.35,-0.8,-0.2
121.953,0.31,-0.82,-0.25
121.963,0.29,-0.85,-0.4
121.973,0.28,-0.84,-0.46
121.983,0.3,-0.89,-0.53
121.993,0.27,-0.9,-0.67
122.004,0.27,-0.91,-0.71
122.014,0.25,-0.98,-0.78
122.024,0.25,-0.9,-0.83
122.034,0.2,-0.85,-0.8
122.044,0.22,-0.85,-0.69
122.054,0.26,-0.73,-0.49
122.064,0.31,-0.58,-0.28
122.074,0.41,-0.45,-0.2
122.084,0.33,-0.44,-0.25
122.094,0.24,-0.44,-0.35
122.104,0.18,-0.38,-0.46
122.114,0.24,-0.27,-0.51
122.125,0.34,-0.15,-0.57
122.134,0.35,0.03,-0.68
122.145,0.2,0.13,-0.82
122.155,-0.07,0.18,-0.95
122.165,-0.19,0.23,-0.79
122.175,-0.18,0.23,-0.32
122.185,-0.2,0.23,0.21
122.195,-0.22,0.13,0.74
122.205,-0.3,-0.0,1.14
122.215,-0.48,-0.17,1.27
122.225,-0.69,-0.4,1.17
122.235,-0.83,-0.58,1.0
122.246,-0.97,-0.76,0.81
122.255,-1.13,-0.92,0.49
122.266,-1.38,-0.98,0.11
122.276,-1.63,-1.06,-0.21
122.286,-1.8,-1.14,-0.44
122.296,-2.0,-1.16,-0.54
122.306,-2.18,-1.13,-0.52
122.316,-2.28,-1.09,-0.45
122.326,-2.4,-1.02,-0.36
122.336,-2.39,-0.89,-0.22
122.346,-2.29,-0.57,-0.06
122.356,-2.18,-0.17,0.17
122.366,-2.01,0.19,0.44
122.376,-1.77,0.44,0.82
122.387,-1.6,0.72,1.2
122.397,-1.45,1.11,1.38
122.407,-1.45,1.38,1.45
122.417,-1.57,1.64,1.43
122.427,-1.73,1.86,1.39
122.437,-1.88,2.08,1.43
122.447,-1.88,2.33,1.54
122.457,-1.83,2.57,1.61
122.467,-1.75,2.64,1.43
122.477,-1.78,2.55,1.04
122.487,-1.89,2.36,0.61
122.497,-1.91,2.33,0.23
122.508,-1.89,2.3,-0.18
122.517,-1.91,2.33,-0.43
122.528,-1.93,2.4,-0.46
122.538,-1.86,2.42,-0.3
122.548,-1.75,2.41,-0.02
122.558,-1.87,2.24,0.18
122.568,-1.85,2.01,0.58
122.578,-1.8,1.69,1.01
122.588,-1.77,1.37,1.39
122.598,-1.72,1.1,1.57
122.608,-1.8,0.85,1.6
122.618,-1.88,0.66,1.43
122.628,-1.9,0.58,1.09
122.638,-1.87,0.51,0.73
122.649,-1.84,0.38,0.52
122.659,-1.77,0.25,0.45
122.669,-1.67,0.11,0.46
122.679,-1.6,-0.15,0.59
122.689,-1.5,-0.38,0.66
122.699,-1.45,-0.62,0.78
122.709,-1.41,-0.76,0.85
122.719,-1.31,-0.8,0.8
122.729,-1.3,-0.73,0.62
122.739,-1.27,-0.63,0.4
122.75,-1.21,-0.55,0.24
122.759,-1.11,-0.49,0.22
122.77,-0.97,-0.4,0.28
122.78,-0.92,-0.33,0.34
122.79,-0.89,-0.24,0.36
122.8,-0.8,-0.18,0.45
122.81,-0.79,-0.13,0.61
122.82,-0.76,-0.09,0.76
122.83,-0.7,-0.01,0.78
122.84,-0.59,0.13,0.75
122.85,-0.37,0.24,0.76
122.86,-0.12,0.33,0.86
122.87,0.06,0.36,0.93
122.88,0.18,0.26,1.03
122.891,0.2,0.15,1.18
122.9,0.12,0.06,1.34
122.911,0.03,-0.11,1.35
122.921,-0.07,-0.29,1.2
122.931,-0.17,-0.3,0.88
122.941,-0.23,-0.28,0.48
122.951,-0.2,-0.28,0.17
122.961,-0.15,-0.29,0.05
122.971,-0.05,-0.34,-0.06
122.981,0.08,-0.37,-0.11
122.991,0.26,-0.35,-0.14
123.001,0.44,-0.36,-0.2
123.012,0.52,-0.44,-0.32
123.021,0.43,-0.55,-0.46
123.032,0.28,-0.62,-0.65
123.042,0.14,-0.65,-0.83
123.052,-0.0,-0.72,-0.83
123.062,0.02,-0.74,-0.62
123.072,0.18,-0.71,-0.27
123.082,0.34,-0.69,-0.02
123.092,0.4,-0.74,0.07
123.102,0.51,-0.79,0.12
123.112,0.59,-0.76,0.22
123.122,0.8,-0.66,0.29
123.132,1.11,-0.57,0.22
123.142,1.3,-0.46,0.0
123.153,1.39,-0.42,-0.25
123.162,1.48,-0.4,-0.57
123.173,1.6,-0.45,-0.89
123.183,1.63,-0.5,-1.14
123.193,1.73,-0.5,-1.29
123.203,1.78,-0.54,-1.4
123.213,1.82,-0.42,-1.46
123.223,1.83,-0.31,-1.48
123.233,1.87,-0.26,-1.44
123.243,1.86,-0.16,-1.46
123.253,1.76,-0.06,-1.44
123.263,1.61,-0.01,-1.39
123.273,1.53,0.18,-1.33
123.283,1.64,0.51,-1.24
123.294,1.79,0.9,-1.15
123.304,2.0,1.28,-0.99
123.314,2.28,1.66,-0.66
123.324,2.48,1.92,-0.33
123.334,2.62,2.16,-0.06
123.344,2.6,2.22,-0.07
123.354,2.41,2.04,-0.19
123.364,2.12,1.87,-0.35
123.374,1.89,1.56,-0.45
123.384,1.84,1.18,-0.41
123.394,1.74,0.78,-0.4
123.404,1.62,0.44,-0.52
123.415,1.72,0.2,-0.71
123.425,1.81,-0.03,-0.89
123.435,1.85,-0.17,-1.07
123.445,1.89,-0.26,-1.14
123.455,1.83,-0.4,-1.14
123.465,1.81,-0.49,-1.07
123.475,1.76,-0.59,-0.87
123.485,1.62,-0.69,-0.69
123.495,1.47,-0.8,-0.52
123.505,1.32,-0.94,-0.3
123.515,1.15,-1.1,-0.2
123.525,1.01,-1.24,-0.18
123.535,1.1,-1.25,-0.14
123.545,1.21,-1.19,-0.21
123.556,1.17,-1.11,-0.39
123.566,1.18,-1.07,-0.48
123.576,1.17,-1.07,-0.45
123.586,1.18,-1.12,-0.37
123.596,1.1,-1.14,-0.18
123.606,1.01,-1.2,0.02
123.616,0.99,-1.29,0.19
123.626,0.89,-1.29,0.3
123.636,0.8,-1.32,0.26
123.646,0.72,-1.35,0.15
123.656,0.69,-1.31,0.0
123.666,0.72,-1.26,-0.07
123.677,0.74,-1.21,-0.07
123.687,0.83,-1.2,0.07
123.697,0.69,-1.15,0.14
123.707,0.39,-1.07,0.04
123.717,0.21,-0.98,-0.1
123.727,0.03,-0.9,-0.09
123.737,-0.04,-0.8,0.03
123.747,-0.05,-0.71,0.23
123.757,-0.14,-0.67,0.26
123.767,-0.11,-0.49,0.24
123.777,-0.06,-0.33,0.25
123.787,-0.02,-0.21,0.3
123.797,0.05,-0.12,0.24
123.808,0.15,-0.01,0.17
123.818,0.24,0.2,0.06
123.828,0.37,0.39,-0.14
123.838,0.47,0.49,-0.26
123.848,0.53,0.47,-0.31
123.858,0.5,0.44,-0.23
