timestamp,ax,ay,az
220.505,-0.2,1.01,-1.29
220.515,-0.18,1.37,-0.87
220.525,0.1,1.67,-0.11
220.535,0.74,1.94,0.76
220.545,1.45,2.19,1.41
220.555,1.93,2.26,1.55
220.565,2.12,2.11,1.12
220.575,2.08,1.9,0.35
220.585,1.81,1.64,-0.46
220.595,1.54,1.39,-0.94
220.605,1.27,1.13,-1.11
220.615,1.04,0.83,-0.98
220.626,0.99,0.63,-0.74
220.636,1.02,0.47,-0.55
220.646,0.98,0.22,-0.43
220.656,0.91,-0.07,-0.39
220.666,0.93,-0.29,-0.41
220.676,0.86,-0.39,-0.46
220.686,0.79,-0.45,-0.55
220.696,0.64,-0.55,-0.7
220.706,0.52,-0.65,-0.83
220.716,0.48,-0.65,-0.93
220.726,0.53,-0.66,-0.91
220.736,0.47,-0.76,-0.87
220.747,0.49,-0.95,-0.72
220.757,0.52,-1.06,-0.48
220.767,0.41,-1.2,-0.38
220.777,0.25,-1.29,-0.37
220.787,0.2,-1.25,-0.38
220.797,0.18,-1.24,-0.33
220.807,0.16,-1.19,-0.26
220.817,0.11,-1.09,-0.29
220.827,0.05,-1.05,-0.35
220.837,0.04,-1.06,-0.34
220.847,0.06,-1.04,-0.26
220.857,0.08,-1.04,-0.05
220.868,0.09,-1.07,0.17
220.878,0.04,-1.05,0.41
220.888,0.04,-1.0,0.63
220.898,0.04,-0.95,0.79
220.908,-0.0,-0.8,0.76
220.918,-0.02,-0.56,0.55
220.928,0.02,-0.33,0.27
220.938,0.07,-0.12,-0.06
220.948,0.13,0.15,-0.24
220.958,0.18,0.28,-0.29
220.968,0.15,0.35,-0.25
220.978,0.06,0.37,-0.1
220.989,-0.07,0.31,-0.1
220.998,-0.31,0.33,-0.13
221.009,-0.44,0.37,-0.1
221.019,-0.58,0.33,0.1
221.029,-0.7,0.33,0.28
221.039,-0.82,0.37,0.45
221.049,-0.87,0.4,0.74
221.059,-0.87,0.39,1.0
221.069,-0.91,0.36,1.23
221.079,-0.92,0.36,1.4
221.089,-0.92,0.4,1.5
221.099,-0.88,0.43,1.52
221.109,-0.87,0.53,1.41
221.119,-0.89,0.55,1.26
221.13,-0.9,0.47,1.21
221.14,-0.96,0.43,1.18
221.15,-1.12,0.32,1.2
221.16,-1.34,0.11,1.2
221.17,-1.58,-0.06,1.18
221.18,-1.89,-0.21,1.08
221.19,-2.15,-0.4,0.87
221.2,-2.34,-0.46,0.7
221.21,-2.44,-0.44,0.71
221.22,-2.32,-0.41,0.81
221.23,-2.2,-0.39,1.03
221.24,-2.11,-0.49,1.24
221.251,-2.06,-0.64,1.51
221.261,-1.99,-0.79,1.78
221.271,-2.01,-0.82,2.02
221.281,-2.2,-0.7,1.93
221.291,-2.45,-0.42,1.36
221.301,-2.72,0.07,0.66
221.311,-2.83,0.59,0.05
221.321,-2.7,1.19,-0.19
221.331,-2.41,1.8,-0.15
221.341,-2.12,2.22,-0.07
221.352,-1.73,2.48,0.04
221.361,-1.35,2.65,0.11
221.372,-0.98,2.65,0.12
221.382,-0.66,2.7,0.2
221.392,-0.51,2.78,0.25
221.402,-0.44,2.79,0.29
221.412,-0.46,2.68,0.21
221.422,-0.6,2.5,0.09
221.432,-0.88,2.24,0.03
221.442,-1.16,1.92,0.08
221.452,-1.3,1.64,0.31
221.462,-1.24,1.46,0.56
221.472,-1.04,1.35,0.71
221.482,-0.87,1.26,0.73
221.493,-0.79,1.01,0.73
221.502,-0.71,0.8,0.69
221.513,-0.53,0.74,0.63
221.523,-0.4,0.63,0.39
221.533,-0.34,0.59,0.08
221.543,-0.4,0.45,-0.18
221.553,-0.45,0.25,-0.4
221.563,-0.53,0.05,-0.51
221.573,-0.65,-0.13,-0.55
221.583,-0.7,-0.26,-0.54
221.593,-0.66,-0.36,-0.47
221.603,-0.68,-0.48,-0.35
221.613,-0.65,-0.6,-0.26
221.623,-0.62,-0.61,-0.1
221.634,-0.51,-0.64,0.06
221.644,-0.36,-0.62,0.24
221.654,-0.26,-0.58,0.38
221.664,-0.22,-0.49,0.36
221.674,-0.24,-0.54,0.41
221.684,-0.24,-0.61,0.38
221.695,-0.25,-0.63,0.38
221.704,-0.19,-0.62,0.48
221.714,-0.21,-0.62,0.5
221.724,-0.17,-0.58,0.49
221.734,-0.18,-0.52,0.37
221.744,-0.2,-0.52,0.21
221.755,-0.22,-0.53,0.1
221.764,-0.22,-0.53,0.03
221.775,-0.2,-0.48,-0.09
221.785,-0.13,-0.39,-0.2
221.795,-0.05,-0.27,-0.29
221.805,0.04,-0.13,-0.39
221.815,0.16,-0.05,-0.38
221.825,0.33,-0.04,-0.28
221.835,0.57,-0.03,-0.2
221.845,0.88,-0.06,-0.1
221.855,1.19,-0.1,-0.01
221.865,1.38,-0.13,-0.05
221.875,1.53,-0.17,-0.2
221.886,1.54,-0.23,-0.34
221.896,1.48,-0.33,-0.42
221.906,1.38,-0.45,-0.41
221.916,1.24,-0.59,-0.27
221.926,1.13,-0.81,-0.13
221.936,1.06,-0.97,-0.09
221.946,1.05,-0.98,-0.18
221.956,1.01,-0.9,-0.38
221.966,0.99,-0.84,-0.57
221.976,1.05,-0.77,-0.67
221.986,1.09,-0.7,-0.7
221.996,1.08,-0.62,-0.73
222.006,1.06,-0.58,-0.88
222.017,1.03,-0.53,-0.97
222.027,0.93,-0.49,-0.99
222.037,0.8,-0.49,-0.91
222.047,0.65,-0.56,-0.76
222.057,0.51,-0.67,-0.58
222.067,0.43,-0.71,-0.36
222.077,0.41,-0.72,-0.19
222.087,0.44,-0.73,-0.07
222.097,0.5,-0.73,0.05
222.107,0.5,-0.77,0.11
222.117,0.41,-0.75,0.12
222.127,0.43,-0.56,0.11
222.138,0.41,-0.33,-0.15
222.147,0.09,0.02,-0.84
222.158,-0.44,0.37,-1.8
222.168,-0.94,0.6,-2.51
222.178,-1.3,0.9,-2.95
222.188,-1.44,1.19,-3.06
222.198,-1.49,1.47,-2.57
222.208,-1.26,1.67,-1.46
222.218,-0.96,1.65,-0.26
222.228,-0.61,1.49,0.67
222.238,-0.42,1.21,1.43
222.248,-0.14,0.99,2.01
222.258,0.09,0.95,2.28
222.268,0.06,1.0,2.18
222.279,0.0,0.97,1.8
222.289,0.02,0.95,1.43
222.299,-0.03,0.99,1.17
222.309,-0.07,0.97,0.98
222.319,-0.09,0.91,0.81
222.329,-0.03,0.85,0.7
222.339,0.04,0.83,0.66
222.349,0.02,0.7,0.67
222.359,-0.0,0.53,0.69
222.369,-0.06,0.36,0.6
222.379,-0.25,0.16,0.43
222.389,-0.44,-0.06,0.21
222.4,-0.65,-0.16,0.01
222.409,-0.78,-0.19,-0.1
222.42,-0.87,-0.24,-0.04
222.43,-0.94,-0.43,0.03
222.44,-1.02,-0.65,0.09
222.45,-0.99,-0.83,0.29
222.46,-0.91,-0.87,0.53
222.47,-0.89,-0.85,0.66
222.48,-0.85,-0.82,0.63
222.49,-0.72,-0.68,0.53
222.5,-0.61,-0.45,0.33
222.51,-0.52,-0.34,0.14
222.521,-0.4,-0.32,0.07
222.531,-0.34,-0.33,0.06
222.541,-0.35,-0.37,0.04
222.551,-0.41,-0.36,0.03
222.561,-0.48,-0.4,0.15
222.571,-0.6,-0.51,0.32
222.581,-0.72,-0.57,0.41
222.591,-0.82,-0.52,0.42
222.601,-0.82,-0.42,0.32
222.611,-0.79,-0.36,0.26
222.621,-0.62,-0.27,0.25
222.631,-0.44,-0.12,0.3
222.642,-0.27,0.01,0.36
222.652,-0.12,0.14,0.28
222.662,-0.11,0.2,0.15
222.672,-0.09,0.15,0.05
222.682,-0.08,0.04,0.1
222.692,0.01,-0.08,0.25
222.702,0.13,-0.15,0.4
222.712,0.21,-0.25,0.39
222.722,0.25,-0.3,0.2
222.732,0.22,-0.29,-0.06
222.742,0.2,-0.26,-0.31
222.752,0.15,-0.25,-0.37
222.763,0.08,-0.28,-0.28
222.773,0.0,-0.37,-0.07
222.783,-0.0,-0.48,0.2
222.793,0.14,-0.56,0.41
222.803,0.27,-0.62,0.59
222.813,0.43,-0.67,0.74
222.823,0.59,-0.61,0.74
222.833,0.72,-0.48,0.59
222.843,0.85,-0.46,0.33
222.853,0.98,-0.41,0.04
222.863,1.16,-0.39,-0.19
222.873,1.31,-0.36,-0.34
222.884,1.35,-0.37,-0.52
222.893,1.33,-0.42,-0.7
222.904,1.21,-0.5,-0.84
222.914,1.14,-0.57,-0.87
222.924,1.11,-0.56,-0.86
222.934,1.1,-0.58,-0.85
222.944,1.09,-0.59,-0.87
222.954,1.06,-0.55,-0.91
222.964,1.1,-0.5,-0.91
222.974,1.16,-0.49,-0.85
222.984,1.21,-0.5,-0.72
222.994,1.33,-0.5,-0.51
223.005,1.47,-0.47,-0.26
223.014,1.67,-0.36,-0.07
223.025,1.92,-0.19,0.17
223.035,2.04,-0.13,0.35
223.045,2.18,-0.05,0.53
223.055,2.33,0.05,0.61
223.065,2.38,0.14,0.54
223.075,2.43,0.4,0.41
223.085,2.53,0.75,0.33
223.095,2.7,1.02,0.45
223.105,3.07,1.27,0.75
223.115,3.57,1.58,1.04
223.125,3.95,1.81,1.2
223.135,4.11,1.84,1.14
223.146,4.15,1.8,0.96
223.156,4.03,1.68,0.76
223.166,3.71,1.49,0.59
223.176,3.28,1.28,0.34
223.186,2.81,1.09,0.12
223.196,2.38,0.88,0.04
223.206,2.04,0.63,0.1
223.216,1.74,0.34,0.26
223.226,1.52,0.11,0.34
223.236,1.14,-0.16,0.2
223.246,0.6,-0.37,0.07
223.256,0.15,-0.67,-0.15
223.267,-0.2,-0.85,-0.25
223.276,-0.34,-0.92,-0.35
223.287,-0.34,-0.93,-0.38
223.297,-0.27,-0.79,-0.4
223.307,-0.11,-0.67,-0.48
223.317,0.03,-0.6,-0.61
223.327,0.29,-0.47,-0.73
223.337,0.55,-0.29,-0.74
223.347,0.83,-0.13,-0.62
223.357,1.09,0.0,-0.48
223.367,1.18,0.03,-0.39
223.377,1.12,0.02,-0.4
223.388,1.07,0.01,-0.49
223.397,0.92,0.01,-0.59
223.408,0.71,-0.05,-0.63
223.418,0.52,-0.13,-0.6
223.428,0.42,-0.03,-0.55
223.438,0.35,0.21,-0.6
223.448,0.14,0.47,-0.75
223.458,-0.08,0.61,-0.91
223.468,-0.4,0.64,-0.99
223.478,-0.56,0.72,-0.86
223.488,-0.76,0.69,-0.76
223.498,-0.97,0.54,-0.64
223.509,-1.04,0.42,-0.53
223.518,-1.12,0.29,-0.49
223.529,-1.23,0.15,-0.41
223.539,-1.35,0.03,-0.32
223.549,-1.44,-0.07,-0.28
223.559,-1.56,-0.13,-0.15
223.569,-1.53,-0.16,0.14
223.579,-1.35,-0.22,0.28
223.589,-1.23,-0.27,0.26
223.599,-1.07,-0.35,0.06
223.609,-0.83,-0.4,-0.03
223.619,-0.65,-0.43,-0.08
223.629,-0.58,-0.36,-0.2
223.639,-0.7,-0.32,-0.36
223.65,-0.93,-0.45,-0.41
223.659,-1.19,-0.7,-0.36
223.67,-1.44,-0.88,-0.11
223.68,-1.62,-0.91,0.15
223.69,-1.85,-0.95,0.22
223.7,-1.91,-0.92,0.23
223.71,-1.61,-0.7,0.27
223.72,-1.3,-0.39,0.32
223.73,-1.0,-0.19,0.32
223.74,-0.63,-0.03,0.39
223.75,-0.29,0.13,0.45
223.76,0.0,0.24,0.43
223.771,0.2,0.18,0.35
223.78,0.16,0.06,0.2
223.791,-0.04,-0.05,-0.02
223.801,-0.32,-0.22,-0.28
223.811,-0.49,-0.28,-0.38
223.821,-0.38,-0.24,-0.28
223.831,-0.14,-0.16,-0.06
223.841,0.16,-0.06,0.15
223.851,0.48,-0.01,0.3
223.861,0.91,0.13,0.43
223.871,1.28,0.34,0.51
223.881,1.51,0.53,0.31
223.891,1.52,0.61,-0.07
223.901,1.3,0.78,-0.52
223.912,1.06,1.01,-0.79
223.922,1.01,1.22,-0.66
223.932,1.09,1.35,-0.25
223.942,1.16,1.31,0.25
223.952,1.28,1.23,0.72
223.962,1.3,1.01,1.09
223.972,1.28,0.77,1.34
223.982,1.29,0.54,1.58
223.992,1.23,0.37,1.6
224.002,0.99,0.06,1.21
224.012,0.65,-0.19,0.58
224.022,0.27,-0.41,-0.08
224.032,0.09,-0.62,-0.53
224.042,0.14,-0.56,-0.74
224.053,0.21,-0.51,-0.73
224.063,0.2,-0.57,-0.67
224.073,0.33,-0.6,-0.49
224.083,0.56,-0.52,-0.26
224.093,0.77,-0.41,-0.15
224.103,0.9,-0.32,-0.2
224.113,0.93,-0.25,-0.3
224.123,0.89,-0.2,-0.33
224.133,0.84,-0.11,-0.42
224.143,0.71,0.01,-0.46
224.154,0.7,-0.06,-0.4
224.163,0.7,-0.19,-0.32
224.174,0.65,-0.37,-0.26
224.184,0.64,-0.46,-0.16
224.194,0.55,-0.55,-0.17
224.204,0.4,-0.67,-0.16
224.214,0.37,-0.74,-0.1
224.224,0.31,-0.85,-0.02
224.234,0.25,-0.85,-0.11
224.244,0.17,-0.78,-0.22
224.254,0.11,-0.63,-0.3
224.264,0.08,-0.58,-0.38
224.275,0.18,-0.51,-0.34
224.284,0.33,-0.4,-0.22
224.295,0.51,-0.3,-0.05
224.305,0.67,-0.16,0.12
224.315,0.82,-0.07,0.25
224.325,0.75,0.0,0.02
224.335,0.56,0.08,-0.33
224.345,0.33,0.13,-0.63
224.355,0.13,0.17,-0.71
224.365,0.11,0.27,-0.54
224.375,0.21,0.51,-0.37
224.385,0.28,0.79,-0.27
224.395,0.22,0.87,-0.17
224.405,0.11,0.67,-0.2
224.416,-0.09,0.44,-0.15
224.425,-0.3,0.16,0.02
224.436,-0.51,-0.13,0.25
224.446,-0.69,-0.33,0.42
224.456,-0.78,-0.42,0.57
224.466,-0.77,-0.46,0.62
224.476,-0.73,-0.42,0.58
224.486,-0.59,-0.39,0.62
224.496,-0.35,-0.35,0.77
224.506,-0.06,-0.26,0.91
224.516,0.18,-0.23,1.07
224.526,0.29,-0.24,0.99
224.537,0.25,-0.34,0.78
224.546,0.06,-0.5,0.55
224.557,-0.22,-0.7,0.31
224.567,-0.45,-0.9,0.09
224.577,-0.68,-1.08,-0.04
224.587,-0.83,-1.16,-0.05
224.597,-0.93,-1.12,0.04
224.607,-1.07,-0.94,0.15
224.617,-1.2,-0.79,0.28
224.627,-1.36,-0.76,0.53
224.637,-1.53,-0.8,0.83
224.647,-1.84,-0.76,0.94
224.657,-2.16,-0.52,0.79
224.667,-2.41,-0.12,0.71
224.678,-2.57,0.39,0.96
224.688,-2.48,0.98,1.34
224.698,-2.24,1.72,1.59
224.708,-2.02,2.36,1.62
224.718,-1.7,2.7,1.59
224.728,-1.35,2.81,1.51
224.738,-1.06,2.89,1.43
224.748,-0.77,2.95,1.2
224.758,-0.68,2.9,0.76
224.768,-0.77,2.82,0.1
224.778,-0.89,2.62,-0.48
224.788,-1.01,2.23,-0.74
224.799,-1.13,1.84,-0.67
224.809,-1.31,1.4,-0.43
224.819,-1.45,0.88,-0.23
224.829,-1.64,0.46,-0.19
224.84,-1.77,0.12,-0.2
224.849,-1.84,-0.18,-0.18
224.859,-1.82,-0.3,-0.12
224.869,-1.74,-0.3,0.08
224.879,-1.55,-0.27,0.21
224.889,-1.31,-0.18,0.32
224.899,-1.08,-0.14,0.39
224.909,-0.9,-0.15,0.45
224.919,-0.8,-0.16,0.45
224.929,-0.71,-0.23,0.47
224.94,-0.64,-0.3,0.54
224.95,-0.7,-0.41,0.55
224.96,-0.69,-0.36,0.58
224.97,-0.59,-0.17,0.5
224.98,-0.66,-0.14,0.36
224.99,-0.64,-0.1,0.25
225.0,-0.57,-0.07,0.08
225.01,-0.52,-0.07,-0.03
225.02,-0.52,-0.15,-0.06
225.03,-0.55,-0.29,-0.12
225.04,-0.66,-0.44,-0.09
225.05,-0.84,-0.59,0.0
225.061,-1.08,-0.71,0.04
225.071,-1.26,-0.8,0.01
225.081,-1.32,-0.77,-0.05
225.091,-1.35,-0.7,-0.07
225.101,-1.33,-0.73,-0.06
225.111,-1.21,-0.79,-0.07
225.121,-1.1,-0.78,-0.21
225.131,-0.89,-0.73,-0.34
225.141,-0.67,-0.66,-0.32
225.151,-0.52,-0.65,-0.37
225.161,-0.42,-0.74,-0.44
225.171,-0.31,-0.79,-0.44
225.182,-0.15,-0.77,-0.36
225.191,0.11,-0.7,-0.23
225.202,0.48,-0.57,-0.1
225.212,0.9,-0.35,0.11
225.222,1.33,-0.15,0.27
225.232,1.64,-0.07,0.37
225.242,1.93,-0.06,0.46
225.252,2.22,-0.15,0.57
225.262,2.35,-0.14,0.59
225.272,2.38,-0.13,0.4
225.282,2.2,-0.18,0.16
225.292,1.86,-0.31,-0.08
225.303,1.53,-0.52,-0.27
225.312,1.22,-0.73,-0.26
225.323,1.04,-0.87,-0.11
225.333,1.01,-0.91,0.01
225.343,1.03,-0.86,0.05
225.353,1.04,-0.77,0.0
225.363,1.08,-0.69,-0.11
225.373,1.15,-0.65,-0.23
225.383,1.2,-0.58,-0.29
225.393,1.27,-0.49,-0.36
225.403,1.35,-0.41,-0.36
225.413,1.4,-0.4,-0.31
225.423,1.39,-0.42,-0.31
225.433,1.38,-0.44,-0.41
225.444,1.34,-0.48,-0.45
225.454,1.26,-0.53,-0.45
225.464,1.08,-0.62,-0.33
225.474,1.01,-0.75,-0.13
225.484,0.97,-0.82,-0.04
225.494,0.89,-0.95,-0.08
