timestamp,ax,ay,az
222.974,1.16,-0.49,-0.85
222.984,1.21,-0.5,-0.72
222.994,1.33,-0.5,-0.51
223.005,1.47,-0.47,-0.26
223.014,1.67,-0.36,-0.07
223.025,1.92,-0.19,0.17
223.035,2.04,-0.13,0.35
223.045,2.18,-0.05,0.53
223.055,2.33,0.05,0.61
223.065,2.38,0.14,0.54
223.075,2.43,0.4,0.41
223.085,2.53,0.75,0.33
223.095,2.7,1.02,0.45
223.105,3.07,1.27,0.75
223.115,3.57,1.58,1.04
223.125,3.95,1.81,1.2
223.135,4.11,1.84,1.14
223.146,4.15,1.8,0.96
223.156,4.03,1.68,0.76
223.166,3.71,1.49,0.59
223.176,3.28,1.28,0.34
223.186,2.81,1.09,0.12
223.196,2.38,0.88,0.04
223.206,2.04,0.63,0.1
223.216,1.74,0.34,0.26
223.226,1.52,0.11,0.34
223.236,1.14,-0.16,0.2
223.246,0.6,-0.37,0.07
223.256,0.15,-0.67,-0.15
223.267,-0.2,-0.85,-0.25
223.276,-0.34,-0.92,-0.35
223.287,-0.34,-0.93,-0.38
223.297,-0.27,-0.79,-0.4
223.307,-0.11,-0.67,-0.48
223.317,0.03,-0.6,-0.61
223.327,0.29,-0.47,-0.73
223.337,0.55,-0.29,-0.74
223.347,0.83,-0.13,-0.62
223.357,1.09,0.0,-0.48
223.367,1.18,0.03,-0.39
223.377,1.12,0.02,-0.4
223.388,1.07,0.01,-0.49
223.397,0.92,0.01,-0.59
223.408,0.71,-0.05,-0.63
223.418,0.52,-0.13,-0.6
223.428,0.42,-0.03,-0.55
223.438,0.35,0.21,-0.6
223.448,0.14,0.47,-0.75
223.458,-0.08,0.61,-0.91
223.468,-0.4,0.64,-0.99
223.478,-0.56,0.72,-0.86
223.488,-0.76,0.69,-0.76
223.498,-0.97,0.54,-0.64
223.509,-1.04,0.42,-0.53
223.518,-1.12,0.29,-0.49
223.529,-1.23,0.15,-0.41
223.539,-1.35,0.03,-0.32
223.549,-1.44,-0.07,-0.28
223.559,-1.56,-0.13,-0.15
223.569,-1.53,-0.16,0.14
223.579,-1.35,-0.22,0.28
223.589,-1.23,-0.27,0.26
223.599,-1.07,-0.35,0.06
223.609,-0.83,-0.4,-0.03
223.619,-0.65,-0.43,-0.08
223.629,-0.58,-0.36,-0.2
223.639,-0.7,-0.32,-0.36
223.65,-0.93,-0.45,-0.41
223.659,-1.19,-0.7,-0.36
223.67,-1.44,-0.88,-0.11
223.68,-1.62,-0.91,0.15
223.69,-1.85,-0.95,0.22
223.7,-1.91,-0.92,0.23
223.71,-1.61,-0.7,0.27
223.72,-1.3,-0.39,0.32
223.73,-1.0,-0.19,0.32
223.74,-0.63,-0.03,0.39
223.75,-0.29,0.13,0.45
223.76,0.0,0.24,0.43
223.771,0.2,0.18,0.35
223.78,0.16,0.06,0.2
223.791,-0.04,-0.05,-0.02
223.801,-0.32,-0.22,-0.28
223.811,-0.49,-0.28,-0.38
223.821,-0.38,-0.24,-0.28
223.831,-0.14,-0.16,-0.06
223.841,0.16,-0.06,0.15
223.851,0.48,-0.01,0.3
223.861,0.91,0.13,0.43
223.871,1.28,0.34,0.51
223.881,1.51,0.53,0.31
223.891,1.52,0.61,-0.07
223.901,1.3,0.78,-0.52
223.912,1.06,1.01,-0.79
223.922,1.01,1.22,-0.66
223.932,1.09,1.35,-0.25
223.942,1.16,1.31,0.25
223.952,1.28,1.23,0.72
223.962,1.3,1.01,1.09
223.972,1.28,0.77,1.34
223.982,1.29,0.54,1.58
223.992,1.23,0.37,1.6
224.002,0.99,0.06,1.21
224.012,0.65,-0.19,0.58
224.022,0.27,-0.41,-0.08
224.032,0.09,-0.62,-0.53
224.042,0.14,-0.56,-0.74
224.053,0.21,-0.51,-0.73
224.063,0.2,-0.57,-0.67
224.073,0.33,-0.6,-0.49
224.083,0.56,-0.52,-0.26
224.093,0.77,-0.41,-0.15
224.103,0.9,-0.32,-0.2
224.113,0.93,-0.25,-0.3
224.123,0.89,-0.2,-0.33
224.133,0.84,-0.11,-0.42
224.143,0.71,0.01,-0.46
224.154,0.7,-0.06,-0.4
224.163,0.7,-0.19,-0.32
224.174,0.65,-0.37,-0.26
224.184,0.64,-0.46,-0.16
224.194,0.55,-0.55,-0.17
224.204,0.4,-0.67,-0.16
224.214,0.37,-0.74,-0.1
224.224,0.31,-0.85,-0.02
224.234,0.25,-0.85,-0.11
224.244,0.17,-0.78,-0.22
224.254,0.11,-0.63,-0.3
224.264,0.08,-0.58,-0.38
224.275,0.18,-0.51,-0.34
224.284,0.33,-0.4,-0.22
224.295,0.51,-0.3,-0.05
224.305,0.67,-0.16,0.12
224.315,0.82,-0.07,0.25
224.325,0.75,0.0,0.02
224.335,0.56,0.08,-0.33
224.345,0.33,0.13,-0.63
224.355,0.13,0.17,-0.71
224.365,0.11,0.27,-0.54
224.375,0.21,0.51,-0.37
224.385,0.28,0.79,-0.27
224.395,0.22,0.87,-0.17
224.405,0.11,0.67,-0.2
224.416,-0.09,0.44,-0.15
224.425,-0.3,0.16,0.02
224.436,-0.51,-0.13,0.25
224.446,-0.69,-0.33,0.42
224.456,-0.78,-0.42,0.57
224.466,-0.77,-0.46,0.62
224.476,-0.73,-0.42,0.58
224.486,-0.59,-0.39,0.62
224.496,-0.35,-0.35,0.77
224.506,-0.06,-0.26,0.91
224.516,0.18,-0.23,1.07
224.526,0.29,-0.24,0.99
224.537,0.25,-0.34,0.78
224.546,0.06,-0.5,0.55
224.557,-0.22,-0.7,0.31
224.567,-0.45,-0.9,0.09
224.577,-0.68,-1.08,-0.04
224.587,-0.83,-1.16,-0.05
224.597,-0.93,-1.12,0.04
224.607,-1.07,-0.94,0.15
224.617,-1.2,-0.79,0.28
224.627,-1.36,-0.76,0.53
224.637,-1.53,-0.8,0.83
224.647,-1.84,-0.76,0.94
224.657,-2.16,-0.52,0.79
224.667,-2.41,-0.12,0.71
224.678,-2.57,0.39,0.96
224.688,-2.48,0.98,1.34
224.698,-2.24,1.72,1.59
224.708,-2.02,2.36,1.62
224.718,-1.7,2.7,1.59
224.728,-1.35,2.81,1.51
224.738,-1.06,2.89,1.43
224.748,-0.77,2.95,1.2
224.758,-0.68,2.9,0.76
224.768,-0.77,2.82,0.1
224.778,-0.89,2.62,-0.48
224.788,-1.01,2.23,-0.74
224.799,-1.13,1.84,-0.67
224.809,-1.31,1.4,-0.43
224.819,-1.45,0.88,-0.23
224.829,-1.64,0.46,-0.19
224.84,-1.77,0.12,-0.2
224.849,-1.84,-0.18,-0.18
224.859,-1.82,-0.3,-0.12
224.869,-1.74,-0.3,0.08
224.879,-1.55,-0.27,0.21
224.889,-1.31,-0.18,0.32
224.899,-1.08,-0.14,0.39
224.909,-0.9,-0.15,0.45
224.919,-0.8,-0.16,0.45
224.929,-0.71,-0.23,0.47
224.94,-0.64,-0.3,0.54
224.95,-0.7,-0.41,0.55
224.96,-0.69,-0.36,0.58
224.97,-0.59,-0.17,0.5
224.98,-0.66,-0.14,0.36
224.99,-0.64,-0.1,0.25
225.0,-0.57,-0.07,0.08
225.01,-0.52,-0.07,-0.03
225.02,-0.52,-0.15,-0.06
225.03,-0.55,-0.29,-0.12
225.04,-0.66,-0.44,-0.09
225.05,-0.84,-0.59,0.0
225.061,-1.08,-0.71,0.04
225.071,-1.26,-0.8,0.01
225.081,-1.32,-0.77,-0.05
225.091,-1.35,-0.7,-0.07
225.101,-1.33,-0.73,-0.06
225.111,-1.21,-0.79,-0.07
225.121,-1.1,-0.78,-0.21
225.131,-0.89,-0.73,-0.34
225.141,-0.67,-0.66,-0.32
225.151,-0.52,-0.65,-0.37
225.161,-0.42,-0.74,-0.44
225.171,-0.31,-0.79,-0.44
225.182,-0.15,-0.77,-0.36
225.191,0.11,-0.7,-0.23
225.202,0.48,-0.57,-0.1
225.212,0.9,-0.35,0.11
225.222,1.33,-0.15,0.27
225.232,1.64,-0.07,0.37
225.242,1.93,-0.06,0.46
225.252,2.22,-0.15,0.57
225.262,2.35,-0.14,0.59
225.272,2.38,-0.13,0.4
225.282,2.2,-0.18,0.16
225.292,1.86,-0.31,-0.08
225.303,1.53,-0.52,-0.27
225.312,1.22,-0.73,-0.26
225.323,1.04,-0.87,-0.11
225.333,1.01,-0.91,0.01
225.343,1.03,-0.86,0.05
225.353,1.04,-0.77,0.0
225.363,1.08,-0.69,-0.11
225.373,1.15,-0.65,-0.23
225.383,1.2,-0.58,-0.29
225.393,1.27,-0.49,-0.36
225.403,1.35,-0.41,-0.36
225.413,1.4,-0.4,-0.31
225.423,1.39,-0.42,-0.31
225.433,1.38,-0.44,-0.41
225.444,1.34,-0.48,-0.45
225.454,1.26,-0.53,-0.45
225.464,1.08,-0.62,-0.33
225.474,1.01,-0.75,-0.13
225.484,0.97,-0.82,-0.04
225.494,0.89,-0.95,-0.08
225.504,0.72,-1.09,-0.21
225.514,0.55,-1.1,-0.37
225.524,0.4,-1.12,-0.47
225.534,0.19,-1.28,-0.67
225.544,0.1,-1.26,-0.79
225.554,0.0,-1.07,-0.96
225.564,-0.16,-0.74,-1.25
225.574,-0.36,-0.31,-1.65
225.585,-0.61,0.25,-2.02
225.595,-0.88,0.9,-2.23
225.605,-1.26,1.47,-2.4
225.615,-1.5,1.82,-2.18
225.625,-1.48,2.09,-1.29
225.635,-1.32,2.27,-0.07
225.645,-1.32,2.33,1.06
225.655,-1.35,2.36,1.91
225.665,-1.21,2.38,2.55
225.676,-1.0,2.39,2.95
225.685,-0.91,2.3,2.91
225.695,-0.89,2.12,2.49
225.706,-0.86,1.96,1.9
225.716,-0.82,1.87,1.29
225.726,-0.81,1.83,0.61
225.736,-0.93,1.79,0.02
225.746,-1.1,1.61,-0.25
225.756,-1.23,1.29,-0.21
225.766,-1.35,0.98,0.04
225.776,-1.33,0.71,0.36
225.786,-1.2,0.5,0.72
225.796,-0.99,0.37,0.98
225.806,-0.78,0.29,1.0
225.816,-0.65,0.25,0.82
225.827,-0.64,0.21,0.55
225.837,-0.66,0.22,0.27
225.847,-0.65,0.2,0.05
225.857,-0.73,0.15,-0.08
225.867,-0.94,-0.07,-0.05
225.877,-1.06,-0.34,0.09
225.887,-1.19,-0.5,0.17
225.897,-1.41,-0.78,0.27
225.907,-1.47,-1.06,0.44
225.917,-1.52,-1.23,0.56
225.927,-1.51,-1.22,0.62
225.937,-1.47,-1.05,0.54
225.948,-1.37,-0.79,0.31
225.957,-1.2,-0.5,0.11
225.968,-1.04,-0.11,0.02
225.978,-0.98,0.15,-0.05
225.988,-0.9,0.19,-0.01
225.998,-0.87,0.16,0.14
226.008,-0.82,0.17,0.35
226.018,-0.8,0.26,0.55
226.028,-0.74,0.34,0.65
226.038,-0.65,0.39,0.66
226.048,-0.49,0.47,0.6
226.058,-0.16,0.67,0.55
226.069,0.1,0.88,0.45
226.078,0.32,0.9,0.29
226.089,0.48,0.81,0.2
226.099,0.62,0.69,0.09
226.109,0.75,0.55,0.01
226.119,0.84,0.33,-0.01
226.129,0.89,0.17,0.04
226.139,0.83,0.02,-0.01
226.149,0.76,-0.17,-0.12
226.159,0.71,-0.34,-0.23
226.169,0.63,-0.45,-0.28
226.179,0.6,-0.64,-0.25
226.189,0.67,-0.76,-0.13
226.199,0.82,-0.82,0.08
226.21,0.98,-0.82,0.25
226.22,0.98,-0.9,0.28
226.23,1.08,-0.88,0.35
226.24,1.13,-0.82,0.34
226.25,1.07,-0.92,0.23
226.26,1.05,-0.97,0.07
226.27,1.05,-1.01,-0.14
226.28,0.89,-1.03,-0.38
226.29,0.81,-1.09,-0.68
226.3,0.74,-1.13,-0.94
226.31,0.69,-1.2,-1.09
226.32,0.75,-1.24,-1.08
226.332,0.82,-1.24,-1.02
226.34,1.02,-1.23,-0.93
226.351,1.24,-1.17,-0.73
226.361,1.48,-1.14,-0.62
226.371,1.7,-1.1,-0.61
226.381,2.05,-0.81,-0.53
226.391,2.5,-0.4,-0.37
226.401,2.79,-0.09,-0.3
226.411,2.97,0.21,-0.36
226.421,3.16,0.52,-0.51
226.431,3.46,0.76,-0.52
226.441,3.52,0.78,-0.67
226.452,3.45,0.66,-0.84
226.461,3.32,0.37,-0.91
226.472,3.24,0.11,-0.83
226.482,3.12,-0.02,-0.68
226.492,3.01,-0.06,-0.55
226.502,2.84,0.06,-0.41
226.512,2.62,0.27,-0.25
226.522,2.5,0.39,-0.14
226.532,2.24,0.53,0.13
226.542,1.96,0.74,0.38
226.552,1.77,0.87,0.65
226.562,1.68,0.95,0.96
226.573,1.55,0.98,1.0
226.582,1.33,0.83,0.85
226.593,1.06,0.52,0.53
226.603,0.87,0.26,0.12
226.613,0.77,0.07,-0.19
226.623,0.7,-0.1,-0.44
226.633,0.67,-0.22,-0.65
226.643,0.7,-0.31,-0.65
226.653,0.79,-0.34,-0.54
226.663,0.77,-0.38,-0.56
226.673,0.66,-0.41,-0.54
226.683,0.51,-0.33,-0.58
226.693,0.27,-0.27,-0.77
226.703,0.04,-0.32,-0.87
226.714,-0.16,-0.35,-0.88
226.724,-0.32,-0.43,-0.82
226.734,-0.52,-0.57,-0.71
226.744,-0.72,-0.74,-0.61
226.754,-0.84,-0.75,-0.58
226.764,-0.84,-0.7,-0.51
226.774,-0.78,-0.66,-0.38
226.784,-0.67,-0.57,-0.22
226.794,-0.5,-0.33,-0.06
226.804,-0.36,-0.2,-0.0
226.814,-0.31,-0.13,0.0
226.824,-0.28,-0.07,0.05
226.835,-0.38,-0.04,0.09
226.845,-0.48,-0.11,0.18
226.855,-0.61,-0.13,0.24
226.865,-0.75,-0.09,0.16
226.875,-0.9,0.04,-0.15
226.885,-1.14,0.06,-0.51
226.895,-1.27,0.16,-0.56
226.905,-1.36,0.24,-0.38
226.915,-1.43,0.23,-0.19
226.925,-1.54,0.21,-0.08
226.935,-1.65,0.21,-0.1
226.945,-1.68,0.26,-0.19
226.956,-1.54,0.38,-0.2
226.966,-1.32,0.59,-0.02
226.976,-1.12,0.72,0.12
226.986,-1.06,0.85,0.33
226.996,-1.07,0.88,0.55
227.006,-1.0,0.67,0.7
227.016,-0.99,0.39,0.89
227.026,-1.02,0.1,1.12
227.036,-1.03,-0.16,1.19
227.046,-1.21,-0.29,1.09
227.056,-1.33,-0.3,0.74
227.066,-1.39,-0.22,0.28
227.076,-1.54,-0.12,-0.19
227.086,-1.57,-0.07,-0.43
227.097,-1.44,-0.03,-0.44
227.107,-1.27,-0.0,-0.34
227.117,-1.04,0.05,-0.2
227.127,-0.85,0.09,-0.12
227.137,-0.68,0.05,-0.13
227.147,-0.53,-0.0,-0.29
227.157,-0.37,-0.08,-0.37
227.167,-0.15,-0.2,-0.41
227.177,0.14,-0.18,-0.34
227.187,0.45,-0.04,-0.27
227.197,0.63,0.07,-0.16
227.207,0.67,0.09,-0.26
227.218,0.74,0.04,-0.48
227.228,0.88,-0.02,-0.59
227.238,1.15,-0.06,-0.58
227.248,1.6,-0.05,-0.27
227.258,1.99,0.01,0.12
227.268,2.21,-0.04,0.31
227.278,2.2,-0.12,0.19
227.288,2.11,-0.09,-0.15
227.298,1.88,0.1,-0.55
227.308,1.66,0.35,-0.92
227.318,1.4,0.74,-0.98
227.328,1.29,1.12,-0.86
227.338,1.18,1.55,-0.36
227.348,1.19,1.65,0.49
227.359,1.42,1.61,1.5
227.369,1.68,1.51,2.47
227.379,1.79,1.29,3.03
227.389,1.83,1.06,2.85
227.399,1.79,0.95,1.92
227.409,1.55,0.95,0.62
227.419,1.33,0.82,-0.53
227.429,1.2,0.64,-1.33
227.439,1.0,0.5,-1.66
227.449,0.8,0.32,-1.63
227.459,0.82,0.08,-1.17
227.469,0.92,-0.15,-0.64
227.48,0.9,-0.41,-0.33
227.49,0.7,-0.66,-0.27
227.5,0.47,-0.87,-0.44
227.51,0.33,-1.03,-0.64
227.52,0.28,-1.05,-0.66
227.53,0.32,-1.05,-0.62
227.54,0.42,-1.03,-0.55
227.55,0.63,-0.94,-0.39
227.56,0.84,-0.91,-0.22
227.57,0.95,-0.95,-0.14
227.58,0.85,-1.16,-0.14
227.59,0.69,-1.35,-0.12
227.601,0.51,-1.48,-0.07
227.61,0.35,-1.54,0.0
227.621,0.21,-1.6,0.04
227.631,0.06,-1.7,0.02
227.641,-0.04,-1.68,-0.09
227.651,-0.12,-1.49,-0.15
227.661,-0.04,-1.34,-0.03
227.671,0.08,-1.22,0.2
227.681,0.24,-1.1,0.57
227.691,0.37,-0.93,0.9
227.701,0.42,-0.8,1.05
227.711,0.44,-0.67,1.13
227.722,0.39,-0.51,1.13
227.731,0.21,-0.4,0.96
227.742,-0.08,-0.29,0.68
227.752,-0.34,-0.23,0.38
227.762,-0.38,-0.12,0.25
227.772,-0.28,0.13,0.32
227.782,-0.07,0.33,0.37
227.792,0.21,0.49,0.35
227.802,0.52,0.64,0.42
227.812,0.69,0.61,0.37
227.822,0.62,0.56,0.16
227.832,0.38,0.45,-0.22
227.842,0.02,0.31,-0.52
227.852,-0.36,0.14,-0.63
227.863,-0.71,-0.04,-0.49
227.873,-0.98,-0.13,-0.22
227.883,-1.07,-0.25,0.19
227.893,-1.07,-0.33,0.68
227.903,-1.1,-0.41,1.05
227.913,-1.16,-0.62,1.35
227.923,-1.27,-0.81,1.57
227.933,-1.42,-0.89,1.62
227.943,-1.54,-0.84,1.47
227.953,-1.62,-0.73,1.18
227.963,-1.79,-0.66,0.76
