timestamp,ax,ay,az
288.506,0.57,-0.93,0.06
288.516,0.54,-0.84,0.04
288.526,0.56,-0.78,0.1
288.536,0.47,-0.67,0.03
288.546,0.29,-0.49,-0.17
288.557,0.17,-0.31,-0.32
288.566,0.17,-0.07,-0.44
288.577,0.24,0.2,-0.34
288.587,0.22,0.42,-0.18
288.597,0.19,0.4,-0.06
288.607,0.14,0.22,0.16
288.617,0.06,-0.01,0.44
288.627,-0.12,-0.27,0.57
288.637,-0.39,-0.55,0.5
288.647,-0.72,-0.73,0.31
288.658,-1.13,-0.79,0.08
288.667,-1.46,-0.84,-0.04
288.678,-1.53,-0.88,-0.05
288.687,-1.55,-0.71,0.09
288.698,-1.56,-0.55,0.26
288.708,-1.54,-0.52,0.44
288.718,-1.43,-0.56,0.72
288.728,-1.34,-0.7,1.04
288.738,-1.3,-0.91,1.32
288.748,-1.24,-1.14,1.58
288.758,-1.25,-1.31,1.64
288.768,-1.37,-1.35,1.51
288.778,-1.49,-1.33,1.3
288.788,-1.48,-1.32,1.07
288.798,-1.4,-1.18,0.94
288.808,-1.46,-1.0,0.83
288.819,-1.47,-0.94,0.67
288.829,-1.6,-0.93,0.62
288.839,-1.55,-0.86,0.72
288.849,-1.51,-0.81,0.93
288.859,-1.61,-0.65,1.12
288.869,-1.72,-0.38,1.15
288.879,-1.91,-0.03,1.14
288.889,-2.1,0.33,1.05
288.899,-2.19,0.77,0.94
288.909,-2.39,1.2,0.68
288.919,-2.49,1.52,0.45
288.929,-2.49,1.85,0.32
288.94,-2.39,2.27,0.17
288.949,-2.25,2.71,0.06
288.96,-2.18,3.03,-0.04
288.97,-1.97,3.25,0.02
288.98,-1.62,3.44,0.18
288.99,-1.34,3.45,0.28
289.0,-1.11,3.33,0.52
289.01,-0.89,3.08,0.66
289.02,-0.77,2.73,0.75
289.03,-0.74,2.32,0.81
289.04,-0.78,1.91,0.8
289.05,-0.84,1.5,0.78
289.061,-0.85,1.08,0.76
289.07,-0.84,0.7,0.69
289.081,-0.84,0.42,0.56
289.091,-0.7,0.19,0.47
289.101,-0.57,0.03,0.37
289.111,-0.42,-0.07,0.26
289.121,-0.3,-0.16,0.19
289.131,-0.31,-0.23,0.16
289.141,-0.33,-0.35,0.16
289.151,-0.42,-0.5,0.14
289.161,-0.53,-0.63,0.15
289.171,-0.57,-0.8,0.19
289.181,-0.61,-0.92,0.24
289.191,-0.65,-0.93,0.17
289.202,-0.68,-0.92,0.09
289.211,-0.63,-0.85,-0.02
289.222,-0.51,-0.78,-0.04
289.232,-0.49,-0.69,-0.02
289.242,-0.46,-0.55,-0.05
289.252,-0.48,-0.44,-0.12
289.262,-0.53,-0.42,-0.09
289.272,-0.62,-0.39,-0.03
289.282,-0.69,-0.37,0.03
289.292,-0.78,-0.44,0.13
289.302,-0.77,-0.54,0.21
289.312,-0.79,-0.55,0.26
289.323,-0.74,-0.52,0.26
289.332,-0.6,-0.44,0.2
289.343,-0.55,-0.29,0.01
289.353,-0.5,-0.07,-0.22
289.363,-0.42,0.13,-0.37
289.373,-0.36,0.3,-0.42
289.383,-0.34,0.42,-0.39
289.393,-0.28,0.52,-0.27
289.403,-0.28,0.54,-0.15
289.413,-0.29,0.5,-0.05
289.423,-0.23,0.52,0.02
289.433,-0.16,0.54,0.07
289.444,-0.05,0.52,0.2
289.453,0.2,0.37,0.43
289.464,0.55,0.1,0.66
289.474,0.81,-0.1,0.78
289.484,0.92,-0.32,0.77
289.494,0.95,-0.68,0.58
289.504,0.78,-1.0,0.12
289.514,0.54,-1.27,-0.42
289.524,0.31,-1.52,-0.7
289.534,0.15,-1.73,-0.72
289.544,0.04,-1.84,-0.67
289.554,-0.06,-1.88,-0.58
289.564,-0.09,-1.92,-0.39
289.574,-0.09,-1.86,-0.09
289.585,-0.02,-1.83,0.11
289.594,0.06,-1.78,0.26
289.605,0.24,-1.7,0.47
289.615,0.54,-1.54,0.85
289.625,0.88,-1.29,1.21
289.635,1.21,-1.07,1.4
289.645,1.4,-0.86,1.24
289.655,1.47,-0.64,0.84
289.665,1.62,-0.36,0.42
289.675,1.88,0.02,0.11
289.685,2.11,0.47,-0.28
289.695,2.28,0.79,-0.69
289.706,2.39,0.91,-0.91
289.715,2.49,1.12,-1.08
289.726,2.38,1.23,-1.15
289.736,2.24,1.2,-1.09
289.746,2.2,1.18,-0.98
289.756,2.19,1.26,-0.91
289.766,2.17,1.44,-0.82
289.776,2.18,1.63,-0.86
289.786,2.11,1.73,-0.98
289.796,2.1,1.7,-1.0
289.806,2.21,1.63,-0.9
289.816,2.45,1.55,-0.69
289.827,2.8,1.43,-0.5
289.836,2.93,1.28,-0.45
289.847,2.79,1.09,-0.61
289.857,2.48,0.82,-0.89
289.867,2.15,0.6,-1.04
289.877,1.87,0.39,-1.01
289.887,1.63,0.1,-0.89
289.897,1.32,-0.18,-0.75
289.907,1.14,-0.42,-0.77
289.917,1.02,-0.58,-0.79
289.927,0.91,-0.7,-0.76
289.937,0.95,-0.83,-0.65
289.947,0.91,-0.91,-0.52
289.957,0.93,-1.0,-0.36
289.968,1.0,-0.99,-0.23
289.978,0.96,-0.96,-0.21
289.988,0.73,-1.0,-0.24
289.998,0.59,-1.06,-0.21
290.008,0.55,-1.11,-0.13
290.018,0.53,-1.11,-0.01
290.028,0.56,-1.02,0.07
290.038,0.67,-0.92,0.11
290.048,0.79,-0.81,0.09
290.058,0.83,-0.61,0.01
290.068,0.81,-0.47,-0.04
290.078,0.82,-0.4,-0.06
290.089,0.81,-0.31,-0.03
290.099,0.75,-0.21,0.07
290.109,0.77,-0.17,0.14
290.119,0.7,-0.13,0.2
290.129,0.62,-0.03,0.27
290.139,0.56,0.06,0.28
290.149,0.47,0.13,0.25
290.159,0.41,0.17,0.29
290.169,0.33,0.18,0.37
290.179,0.22,0.16,0.42
290.189,0.16,0.09,0.48
290.199,0.06,0.0,0.48
290.21,-0.04,-0.11,0.37
290.219,-0.12,-0.24,0.26
290.23,-0.18,-0.35,0.21
290.24,-0.26,-0.44,0.12
290.25,-0.43,-0.53,0.0
290.26,-0.61,-0.6,-0.19
290.27,-0.78,-0.66,-0.26
290.28,-0.88,-0.68,-0.2
290.29,-0.94,-0.67,-0.04
290.3,-1.0,-0.69,0.12
290.31,-1.14,-0.75,0.2
290.32,-1.31,-0.87,0.2
290.33,-1.51,-0.98,0.21
290.34,-1.68,-1.08,0.24
290.351,-1.84,-1.13,0.22
290.361,-1.96,-1.11,0.25
290.371,-1.97,-1.12,0.32
290.381,-1.94,-1.05,0.41
290.391,-1.93,-0.9,0.5
290.401,-1.98,-0.69,0.61
290.411,-1.99,-0.63,0.71
290.421,-1.86,-0.62,0.91
290.431,-1.66,-0.5,1.19
290.441,-1.39,-0.14,1.4
290.451,-1.17,0.32,1.47
290.461,-1.06,0.82,1.34
290.472,-1.03,1.37,1.05
290.482,-1.0,1.91,0.74
290.492,-1.0,2.36,0.36
290.502,-0.95,2.69,0.1
290.512,-0.95,2.99,-0.12
290.522,-1.07,3.2,-0.35
290.532,-1.26,3.29,-0.56
290.542,-1.45,3.17,-0.67
290.552,-1.52,2.92,-0.61
290.562,-1.53,2.64,-0.37
290.572,-1.51,2.26,-0.16
290.582,-1.47,1.87,-0.08
290.593,-1.46,1.54,-0.08
290.602,-1.51,1.22,-0.09
290.613,-1.51,0.98,-0.09
290.623,-1.49,0.81,-0.07
290.633,-1.37,0.72,0.01
290.643,-1.22,0.75,0.21
290.653,-1.05,0.72,0.46
290.663,-0.85,0.6,0.6
290.673,-0.69,0.51,0.79
290.683,-0.51,0.38,1.05
290.693,-0.36,0.22,1.25
290.704,-0.33,0.02,1.41
290.713,-0.32,-0.14,1.46
290.723,-0.45,-0.2,1.29
290.734,-0.63,-0.22,1.06
290.744,-0.74,-0.18,0.84
290.754,-0.81,-0.11,0.66
290.764,-0.84,-0.09,0.57
290.774,-0.93,-0.14,0.5
290.784,-0.94,-0.26,0.48
290.794,-0.89,-0.32,0.52
290.804,-0.81,-0.33,0.52
290.814,-0.74,-0.3,0.47
290.824,-0.76,-0.36,0.4
290.834,-0.89,-0.52,0.32
290.844,-0.86,-0.53,0.43
290.855,-0.8,-0.53,0.42
290.864,-0.88,-0.69,0.3
290.875,-0.95,-0.73,0.31
290.885,-0.98,-0.74,0.38
290.895,-0.92,-0.74,0.35
290.905,-0.89,-0.68,0.37
290.915,-0.86,-0.62,0.39
290.925,-0.86,-0.57,0.4
290.935,-0.79,-0.5,0.39
290.945,-0.65,-0.42,0.39
290.955,-0.5,-0.39,0.32
290.965,-0.27,-0.28,0.25
290.975,-0.01,-0.07,0.17
290.986,0.24,0.14,-0.01
290.996,0.46,0.33,-0.18
291.006,0.47,0.41,-0.33
291.016,0.47,0.38,-0.49
291.026,0.48,0.29,-0.53
291.036,0.5,0.21,-0.48
291.046,0.55,0.11,-0.41
291.056,0.51,-0.01,-0.42
291.066,0.45,-0.07,-0.44
291.076,0.4,-0.15,-0.32
291.086,0.46,-0.3,-0.1
291.097,0.61,-0.47,0.25
291.106,0.79,-0.57,0.57
291.117,0.93,-0.69,0.83
291.127,1.05,-0.85,0.98
291.137,1.1,-0.98,1.06
291.147,1.11,-1.08,1.05
291.157,1.11,-1.21,0.98
291.167,1.05,-1.33,0.83
291.177,0.93,-1.37,0.57
291.187,0.81,-1.3,0.3
291.197,0.75,-1.22,0.04
291.207,0.81,-1.06,-0.13
291.217,0.93,-0.72,-0.23
291.227,1.21,-0.3,-0.28
291.238,1.36,0.07,-0.34
291.248,1.4,0.38,-0.5
291.258,1.39,0.63,-0.67
291.268,1.35,0.85,-0.79
291.278,1.46,1.07,-0.69
291.288,1.56,1.27,-0.35
291.298,1.7,1.37,-0.0
291.308,1.86,1.47,0.23
291.318,1.86,1.55,0.07
291.328,1.92,1.55,-0.19
291.338,1.86,1.54,-0.46
291.348,1.95,1.61,-0.64
291.359,2.26,1.66,-0.66
291.369,2.6,1.68,-0.58
291.379,2.95,1.62,-0.43
291.389,3.14,1.49,-0.34
291.399,3.19,1.25,-0.43
291.409,3.08,0.92,-0.57
291.419,2.73,0.55,-0.66
291.429,2.24,0.09,-0.77
291.439,1.72,-0.34,-0.83
291.449,1.37,-0.61,-0.77
291.459,1.15,-0.62,-0.67
291.469,0.94,-0.62,-0.62
291.48,0.85,-0.7,-0.54
291.489,0.81,-0.77,-0.45
291.5,0.84,-0.89,-0.29
291.51,0.96,-1.0,-0.18
291.52,1.06,-1.02,-0.04
291.53,1.1,-0.98,-0.02
291.54,1.07,-0.95,-0.14
291.55,0.92,-0.91,-0.27
291.56,0.82,-0.96,-0.34
291.57,0.74,-1.04,-0.4
291.58,0.68,-1.13,-0.47
291.59,0.68,-1.2,-0.47
291.601,0.66,-1.28,-0.48
291.61,0.62,-1.24,-0.57
291.621,0.56,-1.16,-0.61
291.631,0.61,-1.08,-0.56
291.641,0.66,-0.91,-0.57
291.651,0.65,-0.72,-0.6
291.661,0.64,-0.57,-0.59
291.671,0.57,-0.4,-0.56
291.681,0.47,-0.32,-0.54
291.691,0.45,-0.26,-0.47
291.701,0.49,-0.14,-0.27
291.711,0.52,0.06,-0.1
291.721,0.44,0.18,0.01
291.731,0.35,0.15,0.08
291.742,0.32,0.1,0.17
291.751,0.3,0.06,0.29
291.762,0.19,0.01,0.27
291.772,0.0,-0.1,0.14
291.782,-0.26,-0.2,-0.02
291.792,-0.61,-0.3,-0.12
291.802,-0.89,-0.42,-0.15
291.812,-1.13,-0.47,-0.09
291.822,-1.3,-0.55,0.12
291.832,-1.42,-0.64,0.3
291.842,-1.6,-0.76,0.39
291.852,-1.73,-0.89,0.47
291.863,-1.82,-1.0,0.46
291.872,-1.87,-1.1,0.44
291.883,-1.88,-1.18,0.42
291.893,-1.86,-1.24,0.37
291.903,-1.85,-1.21,0.3
291.913,-1.91,-1.11,0.23
291.923,-1.94,-1.06,0.24
291.933,-1.93,-1.08,0.23
291.943,-1.93,-1.01,0.36
291.953,-1.92,-0.98,0.71
291.963,-1.89,-1.09,1.06
291.973,-1.95,-1.12,1.28
291.983,-2.03,-1.05,1.55
291.993,-2.03,-1.0,1.77
292.004,-2.06,-0.83,1.83
292.014,-2.15,-0.53,1.79
292.024,-2.34,-0.03,1.42
292.034,-2.62,0.63,0.82
292.044,-2.83,1.21,0.47
292.054,-2.83,1.73,0.35
292.064,-2.6,2.35,0.37
292.074,-2.42,2.92,0.44
292.084,-2.16,3.4,0.62
292.094,-1.86,3.72,0.79
292.104,-1.64,3.96,0.69
292.114,-1.44,4.28,0.44
292.125,-1.36,4.47,0.22
292.134,-1.24,4.47,0.14
292.145,-1.03,4.37,0.16
292.155,-0.8,4.14,0.13
292.165,-0.6,3.76,0.19
292.175,-0.44,3.32,0.2
292.185,-0.38,2.79,0.15
292.195,-0.41,2.31,0.15
292.205,-0.46,1.83,0.17
292.215,-0.45,1.43,0.3
292.225,-0.41,1.06,0.44
292.235,-0.33,0.72,0.59
292.245,-0.26,0.43,0.71
292.255,-0.2,0.22,0.81
292.266,-0.18,0.11,0.87
292.276,-0.2,-0.1,0.9
292.286,-0.2,-0.31,0.89
292.296,-0.23,-0.46,0.86
292.306,-0.35,-0.61,0.82
292.316,-0.5,-0.77,0.86
292.326,-0.61,-0.95,0.9
292.336,-0.73,-1.05,0.89
292.346,-0.86,-1.09,0.91
292.356,-0.97,-1.06,0.96
292.367,-1.07,-1.09,0.86
292.376,-1.13,-1.13,0.71
292.387,-1.15,-1.1,0.59
292.397,-1.16,-0.98,0.51
292.407,-1.1,-0.86,0.48
292.417,-0.97,-0.83,0.49
292.427,-0.93,-0.79,0.51
292.437,-0.81,-0.76,0.5
292.447,-0.62,-0.76,0.62
292.457,-0.43,-0.74,0.75
292.467,-0.34,-0.64,0.75
292.477,-0.31,-0.54,0.71
292.487,-0.27,-0.44,0.57
292.497,-0.18,-0.27,0.43
292.508,-0.08,-0.07,0.32
292.517,0.05,0.12,0.23
292.528,0.17,0.23,0.14
292.538,0.25,0.28,0.06
292.548,0.41,0.22,0.16
292.558,0.64,0.09,0.28
292.568,0.86,-0.01,0.41
292.578,0.99,-0.11,0.45
292.588,0.96,-0.28,0.34
292.598,0.84,-0.48,0.09
292.608,0.69,-0.66,-0.15
292.618,0.59,-0.84,-0.34
292.629,0.55,-1.0,-0.42
292.638,0.59,-1.17,-0.32
292.649,0.68,-1.35,-0.15
292.659,0.85,-1.47,0.02
292.669,1.04,-1.56,0.18
292.679,1.21,-1.58,0.24
292.689,1.27,-1.59,0.21
292.699,1.19,-1.52,0.01
292.709,0.99,-1.48,-0.31
292.719,0.84,-1.46,-0.56
292.729,0.88,-1.3,-0.62
292.739,0.93,-1.06,-0.53
292.749,1.14,-0.95,-0.42
292.759,1.46,-0.94,-0.25
292.77,1.74,-0.95,-0.11
292.78,2.07,-0.97,-0.09
292.79,2.35,-0.88,-0.13
292.8,2.41,-0.65,-0.3
292.81,2.41,-0.24,-0.44
292.82,2.33,0.27,-0.62
292.83,2.47,0.8,-0.75
292.84,2.61,1.48,-0.8
292.85,2.61,2.12,-0.9
292.86,2.53,2.57,-1.01
292.87,2.63,2.78,-0.97
292.88,2.9,2.83,-0.89
292.891,3.08,2.89,-0.8
292.9,3.23,2.94,-0.61
292.911,3.19,2.84,-0.35
292.921,3.2,2.71,-0.11
292.931,3.05,2.5,-0.07
292.941,2.74,2.29,-0.12
292.951,2.34,1.98,-0.3
292.961,1.87,1.51,-0.55
292.971,1.59,1.18,-0.66
292.981,1.31,0.92,-0.6
292.991,1.12,0.7,-0.48
293.001,0.95,0.43,-0.3
293.011,0.88,0.11,-0.09
293.021,0.88,-0.14,0.08
293.032,0.78,-0.31,0.07
293.042,0.64,-0.5,0.03
293.052,0.61,-0.57,-0.01
293.062,0.55,-0.58,-0.09
293.072,0.57,-0.56,-0.19
293.082,0.61,-0.55,-0.24
293.092,0.64,-0.52,-0.2
293.102,0.65,-0.54,-0.18
293.112,0.65,-0.71,-0.2
293.122,0.67,-0.88,-0.19
293.134,0.68,-1.03,-0.15
293.143,0.6,-1.13,-0.14
293.153,0.46,-1.16,-0.09
293.163,0.43,-1.19,-0.06
293.173,0.43,-1.17,0.03
293.183,0.45,-1.03,0.06
293.193,0.35,-0.9,-0.03
293.203,0.13,-0.66,-0.14
293.213,0.1,-0.39,-0.26
293.223,0.05,-0.2,-0.29
293.233,0.04,-0.07,-0.21
293.243,0.04,-0.02,-0.14
293.253,0.05,0.03,-0.17
293.263,0.03,0.07,-0.18
293.274,0.04,0.08,-0.1
293.284,0.02,0.01,0.05
293.294,0.01,-0.15,0.26
293.304,-0.09,-0.32,0.45
293.314,-0.3,-0.54,0.57
293.324,-0.5,-0.78,0.69
293.334,-0.72,-1.0,0.78
293.344,-0.95,-1.17,0.82
293.354,-1.2,-1.25,0.78
293.364,-1.36,-1.26,0.76
293.374,-1.53,-1.24,0.77
293.384,-1.6,-1.24,0.77
293.395,-1.45,-1.2,0.9
293.405,-1.32,-1.14,1.03
293.415,-1.2,-1.13,1.01
293.425,-1.11,-1.19,0.96
293.435,-1.11,-1.29,0.93
293.445,-1.17,-1.43,0.97
293.455,-1.28,-1.65,0.92
293.465,-1.34,-1.76,0.95
293.475,-1.35,-1.77,1.01
293.485,-1.41,-1.78,1.02
293.495,-1.58,-1.79,0.99
