timestamp,ax,ay,az
164.542,3.09,1.91,1.18
164.552,2.69,1.44,0.62
164.562,2.38,1.04,0.04
164.572,1.93,0.77,-0.48
164.582,1.34,0.5,-0.79
164.592,0.92,0.11,-0.85
164.603,0.81,-0.2,-0.63
164.613,0.86,-0.36,-0.3
164.623,0.77,-0.54,-0.14
164.633,0.59,-0.72,-0.03
164.643,0.42,-0.88,0.11
164.653,0.38,-1.06,0.19
164.663,0.42,-1.11,0.34
164.673,0.47,-1.09,0.38
164.683,0.46,-1.04,0.29
164.693,0.34,-1.11,0.11
164.703,0.21,-1.16,-0.07
164.713,0.13,-1.14,-0.18
164.724,0.11,-1.13,-0.2
164.734,0.08,-1.12,-0.22
164.744,0.05,-1.15,-0.25
164.754,-0.04,-1.18,-0.27
164.764,0.01,-1.1,-0.18
164.774,0.08,-1.08,-0.09
164.784,0.13,-1.04,-0.03
164.794,0.17,-0.91,0.13
164.804,0.25,-0.79,0.32
164.814,0.3,-0.64,0.44
164.824,0.33,-0.52,0.56
164.834,0.4,-0.4,0.66
164.845,0.37,-0.22,0.61
164.854,0.23,-0.0,0.44
164.865,0.04,0.18,0.2
164.875,-0.17,0.31,-0.01
164.885,-0.31,0.5,-0.1
164.895,-0.39,0.67,-0.1
164.905,-0.23,0.75,0.05
164.915,-0.08,0.79,0.22
164.925,-0.03,0.58,0.33
164.935,-0.12,0.23,0.38
164.945,-0.37,-0.13,0.35
164.955,-0.69,-0.45,0.25
164.965,-0.94,-0.69,0.17
164.975,-1.2,-0.86,0.15
164.985,-1.38,-0.98,0.15
164.995,-1.46,-1.03,0.24
165.006,-1.42,-1.0,0.3
165.016,-1.41,-0.9,0.31
165.026,-1.42,-0.89,0.25
165.036,-1.43,-0.9,0.13
165.046,-1.54,-0.96,-0.03
165.056,-1.69,-1.02,-0.18
165.066,-1.75,-1.09,-0.29
165.076,-1.84,-1.1,-0.38
165.086,-1.88,-1.1,-0.47
165.096,-1.9,-0.97,-0.55
165.106,-1.91,-0.77,-0.52
165.116,-1.78,-0.61,-0.37
165.127,-1.66,-0.55,-0.1
165.137,-1.66,-0.59,0.19
165.147,-1.75,-0.62,0.34
165.157,-1.9,-0.66,0.33
165.167,-2.15,-0.54,0.3
165.177,-2.22,-0.12,0.31
165.187,-2.06,0.45,0.55
165.197,-1.97,1.07,0.91
165.207,-1.9,1.61,1.3
165.217,-1.74,1.95,1.7
165.227,-1.62,2.12,2.12
165.237,-1.51,2.26,2.38
165.248,-1.37,2.37,2.44
165.258,-1.41,2.44,2.36
165.268,-1.45,2.42,2.06
165.278,-1.54,2.4,1.56
165.288,-1.78,2.42,0.96
165.298,-2.04,2.39,0.27
165.308,-2.22,2.26,-0.38
165.318,-2.34,2.01,-0.78
165.328,-2.32,1.73,-0.98
165.338,-2.28,1.49,-1.0
165.348,-2.17,1.16,-0.91
165.358,-2.0,0.79,-0.76
165.369,-1.74,0.44,-0.62
165.379,-1.48,0.15,-0.45
165.389,-1.32,0.05,-0.35
165.399,-1.17,0.06,-0.34
165.409,-1.04,0.06,-0.35
165.419,-1.08,0.05,-0.37
165.429,-1.16,-0.01,-0.3
165.439,-1.22,-0.05,-0.06
165.449,-1.26,-0.11,0.26
165.459,-1.28,-0.25,0.54
165.469,-1.26,-0.42,0.77
165.479,-1.19,-0.48,0.91
165.489,-1.15,-0.47,0.93
165.499,-1.14,-0.43,0.73
165.51,-1.16,-0.38,0.37
165.52,-1.21,-0.39,0.04
165.53,-1.23,-0.43,-0.11
165.54,-1.25,-0.46,-0.15
165.55,-1.29,-0.45,-0.12
165.56,-1.3,-0.38,-0.03
165.57,-1.26,-0.29,0.01
165.58,-1.17,-0.34,0.06
165.59,-1.09,-0.43,0.26
165.6,-1.01,-0.48,0.49
165.611,-0.88,-0.58,0.59
165.62,-0.78,-0.54,0.56
165.631,-0.66,-0.38,0.47
165.641,-0.5,-0.19,0.32
165.651,-0.41,0.0,0.15
165.661,-0.37,0.14,0.06
165.671,-0.36,0.26,-0.02
165.681,-0.29,0.35,-0.0
165.691,-0.09,0.35,0.04
165.701,0.26,0.33,0.3
165.711,0.5,0.36,0.55
165.721,0.63,0.35,0.57
165.731,0.79,0.34,0.37
165.741,0.86,0.45,0.04
165.752,0.8,0.49,-0.27
165.762,0.86,0.47,-0.46
165.772,0.93,0.37,-0.45
165.782,0.89,0.22,-0.31
165.792,1.0,0.03,0.01
165.802,1.25,-0.19,0.39
165.812,1.4,-0.43,0.71
165.822,1.4,-0.68,0.93
165.832,1.33,-0.88,0.95
165.842,1.24,-1.02,0.78
165.852,1.15,-1.1,0.45
165.862,1.12,-1.09,0.13
165.873,1.18,-1.02,-0.18
165.882,1.19,-0.97,-0.53
165.893,1.24,-1.01,-0.86
165.903,1.35,-1.01,-1.05
165.913,1.54,-0.87,-1.0
165.923,1.85,-0.7,-0.84
165.933,2.18,-0.53,-0.54
165.943,2.39,-0.46,-0.28
165.953,2.78,-0.56,0.09
165.963,3.31,-0.56,0.43
165.973,3.71,-0.47,0.63
165.983,4.13,-0.52,0.51
165.993,4.26,-0.54,0.06
166.003,3.95,-0.44,-0.77
166.014,3.64,-0.23,-1.67
166.023,3.48,0.1,-2.41
166.034,3.19,0.68,-2.77
166.044,2.95,1.2,-2.77
166.054,2.81,1.5,-2.52
166.064,2.7,1.58,-1.94
166.074,2.47,1.44,-1.22
166.084,2.46,1.19,-0.57
166.094,2.5,1.02,0.14
166.104,2.38,0.94,0.68
166.115,2.22,0.85,0.81
166.124,2.12,0.8,0.74
166.135,1.95,0.72,0.45
166.145,1.7,0.7,0.12
166.155,1.54,0.55,-0.15
166.165,1.43,0.39,-0.23
166.175,1.48,0.23,-0.17
166.185,1.49,0.02,0.1
166.195,1.39,-0.22,0.33
166.205,1.23,-0.49,0.32
166.215,1.07,-0.67,0.27
166.225,0.86,-0.76,0.22
166.235,0.7,-0.77,0.14
166.245,0.68,-0.68,0.01
166.256,0.8,-0.43,0.04
166.265,1.06,-0.15,0.13
166.276,1.28,-0.02,0.13
166.286,1.37,0.04,0.13
166.296,1.34,0.1,0.22
166.306,1.38,-0.01,0.33
166.316,1.25,-0.18,0.46
166.326,1.07,-0.38,0.61
166.336,1.01,-0.5,0.76
166.346,1.03,-0.49,0.86
166.356,1.0,-0.5,0.82
166.366,0.96,-0.6,0.7
166.377,0.94,-0.56,0.59
166.387,0.79,-0.58,0.33
166.397,0.63,-0.65,0.04
166.407,0.59,-0.7,-0.12
166.417,0.52,-0.71,-0.2
166.427,0.5,-0.65,-0.21
166.437,0.47,-0.62,-0.18
166.447,0.35,-0.65,-0.15
166.457,0.3,-0.69,-0.07
166.467,0.24,-0.67,0.01
166.477,0.26,-0.61,0.15
166.487,0.36,-0.53,0.29
166.497,0.34,-0.48,0.42
166.507,0.3,-0.44,0.38
166.518,0.21,-0.42,0.13
166.528,0.16,-0.29,0.03
166.538,0.11,-0.18,0.07
166.548,-0.06,-0.12,0.14
166.558,-0.21,-0.14,0.23
166.568,-0.26,-0.16,0.3
166.578,-0.3,-0.15,0.36
166.588,-0.33,-0.15,0.42
166.598,-0.51,-0.27,0.38
166.608,-0.78,-0.44,0.23
166.618,-1.16,-0.63,-0.01
166.628,-1.48,-0.8,-0.21
166.639,-1.66,-0.82,-0.4
166.648,-1.78,-0.67,-0.52
166.659,-1.85,-0.54,-0.57
166.669,-1.84,-0.47,-0.56
166.679,-1.88,-0.36,-0.45
166.689,-1.89,-0.25,-0.2
166.699,-1.72,-0.14,0.17
166.709,-1.45,0.09,0.75
166.719,-1.31,0.33,1.21
166.729,-1.3,0.51,1.48
166.739,-1.28,0.66,1.65
166.749,-1.29,0.92,1.87
166.76,-1.29,1.34,1.99
166.769,-1.4,1.81,1.78
166.78,-1.61,2.24,1.27
166.79,-1.88,2.55,0.78
166.8,-2.04,2.75,0.4
166.81,-2.09,3.07,0.21
166.82,-2.0,3.38,0.26
166.83,-1.75,3.56,0.52
166.84,-1.59,3.46,0.78
166.85,-1.61,3.08,0.97
166.86,-1.68,2.52,0.96
166.87,-1.74,1.96,0.7
166.881,-1.71,1.59,0.28
166.891,-1.9,1.38,-0.34
166.901,-2.07,1.19,-0.99
166.911,-2.14,0.94,-1.28
166.921,-2.1,0.73,-1.2
166.931,-2.09,0.49,-0.84
166.941,-2.04,0.12,-0.49
166.951,-2.04,-0.21,-0.33
166.961,-2.13,-0.46,-0.27
166.971,-2.09,-0.72,-0.21
166.981,-2.07,-0.82,-0.21
166.991,-2.07,-0.81,-0.26
167.001,-1.93,-0.83,-0.31
167.011,-1.79,-0.78,-0.26
167.022,-1.68,-0.61,-0.2
167.031,-1.62,-0.41,-0.17
167.042,-1.53,-0.31,-0.06
167.052,-1.35,-0.39,0.07
167.062,-1.33,-0.59,0.28
167.072,-1.31,-0.89,0.49
167.082,-1.27,-1.18,0.69
167.092,-1.32,-1.34,0.75
167.102,-1.29,-1.34,0.69
167.112,-1.26,-1.3,0.48
167.122,-1.27,-1.1,0.16
167.132,-1.34,-0.87,-0.14
167.143,-1.33,-0.74,-0.27
167.152,-1.28,-0.65,-0.24
167.163,-1.2,-0.59,-0.17
167.173,-1.12,-0.54,-0.01
167.183,-1.07,-0.63,0.24
167.193,-1.12,-0.75,0.42
167.203,-1.21,-0.82,0.46
167.213,-1.25,-0.8,0.44
167.223,-1.19,-0.66,0.36
167.233,-1.01,-0.36,0.29
167.243,-0.71,-0.05,0.29
167.253,-0.34,0.22,0.23
167.264,0.07,0.49,0.27
167.273,0.48,0.69,0.32
167.284,0.83,0.69,0.38
167.294,1.21,0.6,0.55
167.304,1.37,0.52,0.74
167.314,1.4,0.38,0.75
167.324,1.31,0.25,0.51
167.334,1.08,0.24,0.1
167.344,0.96,0.15,-0.31
167.354,0.97,0.01,-0.5
167.364,1.01,-0.23,-0.47
167.374,1.12,-0.57,-0.35
167.384,1.24,-0.92,-0.22
167.394,1.35,-1.16,-0.06
167.405,1.49,-1.31,0.0
167.415,1.5,-1.32,-0.1
167.425,1.54,-1.21,-0.22
167.435,1.7,-1.09,-0.28
167.445,1.8,-1.02,-0.4
167.455,1.89,-0.96,-0.51
167.465,2.03,-0.8,-0.43
167.475,2.18,-0.6,-0.1
167.485,2.31,-0.4,0.33
167.495,2.52,-0.29,0.69
167.505,2.71,-0.24,1.0
167.515,2.87,-0.09,1.27
167.525,3.04,0.14,1.4
167.535,3.29,0.38,1.35
167.546,3.47,0.67,1.06
167.556,3.31,0.97,0.59
167.566,3.14,1.31,0.07
167.576,2.84,1.77,-0.44
167.586,2.57,2.46,-0.93
167.596,2.42,3.21,-1.12
167.606,2.49,3.59,-0.94
167.616,2.56,3.62,-0.49
167.626,2.79,3.39,0.15
167.636,2.95,3.07,0.62
167.646,2.98,2.76,0.68
167.656,2.88,2.4,0.53
167.667,2.71,2.0,0.27
167.677,2.57,1.59,0.05
167.687,2.49,1.13,-0.02
167.697,2.31,0.69,-0.11
167.707,1.89,0.28,-0.22
167.717,1.64,-0.18,-0.27
167.727,1.49,-0.59,-0.31
167.737,1.3,-0.94,-0.22
167.747,1.17,-1.19,-0.17
167.757,1.16,-1.33,-0.19
167.767,1.17,-1.36,-0.2
167.777,1.17,-1.27,-0.21
167.788,1.17,-1.18,-0.28
167.798,1.2,-1.04,-0.34
167.808,1.25,-0.83,-0.33
167.818,1.39,-0.68,-0.39
167.828,1.49,-0.48,-0.34
167.838,1.46,-0.46,-0.27
167.848,1.31,-0.55,-0.21
167.858,1.15,-0.63,-0.17
167.868,1.01,-0.67,-0.16
167.878,0.74,-0.7,-0.21
167.888,0.58,-0.74,-0.29
167.898,0.55,-0.73,-0.36
167.909,0.61,-0.62,-0.29
167.918,0.61,-0.47,-0.22
167.929,0.47,-0.47,-0.28
167.939,0.38,-0.49,-0.34
167.949,0.23,-0.52,-0.3
167.959,0.16,-0.52,-0.1
167.969,0.18,-0.51,0.16
167.979,0.11,-0.6,0.44
167.989,-0.01,-0.65,0.6
167.999,-0.11,-0.63,0.67
168.009,-0.24,-0.56,0.67
168.019,-0.2,-0.41,0.6
168.029,-0.07,-0.24,0.49
168.039,0.08,-0.05,0.29
168.05,0.25,0.1,0.17
168.06,0.3,0.21,-0.0
168.07,0.24,0.22,-0.25
168.08,0.12,0.12,-0.42
168.09,-0.15,0.0,-0.49
168.1,-0.45,-0.21,-0.35
168.11,-0.77,-0.47,-0.13
168.12,-1.07,-0.69,0.14
168.13,-1.39,-0.84,0.36
168.14,-1.59,-1.03,0.51
168.15,-1.8,-1.24,0.58
168.16,-1.91,-1.36,0.59
168.171,-1.88,-1.26,0.52
168.18,-1.84,-1.16,0.33
168.191,-1.78,-1.1,0.11
168.201,-1.6,-1.07,-0.12
168.211,-1.5,-0.96,-0.27
168.221,-1.48,-0.8,-0.37
168.231,-1.47,-0.64,-0.34
168.241,-1.36,-0.6,-0.15
168.251,-1.15,-0.53,0.17
168.261,-0.98,-0.34,0.57
168.271,-0.8,-0.19,0.9
168.281,-0.52,-0.1,1.2
168.292,-0.29,0.02,1.48
168.301,-0.22,0.28,1.63
168.312,-0.37,0.59,1.76
168.322,-0.77,1.12,1.55
168.332,-1.38,1.85,1.09
168.342,-1.9,2.6,0.74
168.352,-2.21,3.2,0.69
168.362,-2.35,3.49,0.89
168.372,-2.48,3.4,1.32
168.382,-2.57,3.0,1.79
168.392,-2.45,2.56,2.19
168.402,-2.36,2.2,2.41
168.413,-2.35,1.9,2.35
168.422,-2.36,1.73,1.99
168.433,-2.38,1.64,1.43
168.443,-2.24,1.69,0.76
168.453,-2.07,1.76,0.18
168.463,-1.93,1.67,-0.29
168.473,-1.83,1.39,-0.72
168.483,-1.86,0.99,-0.99
168.493,-1.95,0.49,-1.1
168.503,-1.97,0.09,-1.1
168.513,-1.93,-0.19,-1.02
168.523,-1.8,-0.28,-0.92
168.534,-1.65,-0.2,-0.79
168.543,-1.46,-0.21,-0.61
168.554,-1.32,-0.3,-0.47
168.564,-1.2,-0.4,-0.39
168.574,-1.02,-0.56,-0.32
168.584,-0.94,-0.73,-0.24
168.594,-0.9,-0.88,-0.27
168.604,-0.95,-1.06,-0.28
168.614,-1.0,-1.24,-0.31
168.624,-1.07,-1.43,-0.26
168.634,-1.2,-1.61,-0.06
168.644,-1.34,-1.69,0.22
168.654,-1.35,-1.62,0.51
168.664,-1.34,-1.38,0.75
168.675,-1.21,-1.06,0.85
168.684,-0.99,-0.75,0.89
168.695,-0.83,-0.47,0.9
168.705,-0.67,-0.28,0.83
168.715,-0.54,-0.18,0.69
168.725,-0.43,-0.08,0.61
168.735,-0.4,-0.05,0.52
168.745,-0.48,-0.08,0.43
168.755,-0.56,-0.14,0.36
168.765,-0.81,-0.12,0.33
168.775,-0.98,0.06,0.4
168.785,-0.9,0.34,0.58
168.796,-0.75,0.49,0.7
168.805,-0.72,0.58,0.74
168.816,-0.7,0.66,0.81
168.826,-0.57,0.62,0.8
168.836,-0.48,0.53,0.72
168.846,-0.33,0.38,0.62
168.856,-0.18,0.24,0.48
168.866,-0.04,0.18,0.3
168.876,0.01,0.08,0.06
168.886,0.1,-0.0,-0.14
168.896,0.24,-0.06,-0.24
168.906,0.47,-0.11,-0.29
168.917,0.75,-0.15,-0.3
168.926,1.0,-0.22,-0.29
168.937,1.2,-0.37,-0.25
168.947,1.46,-0.55,-0.21
168.957,1.76,-0.74,-0.1
168.967,1.99,-0.83,0.02
168.977,2.18,-0.87,0.03
168.987,2.28,-0.97,-0.06
168.997,2.31,-1.09,-0.27
169.007,2.24,-1.16,-0.49
169.017,2.11,-1.16,-0.68
169.027,2.0,-1.18,-0.89
169.037,1.89,-1.17,-1.05
169.047,1.85,-0.99,-1.25
169.058,1.89,-0.66,-1.41
169.068,1.95,-0.31,-1.41
169.078,2.04,0.1,-1.24
169.088,2.26,0.37,-1.0
169.098,2.49,0.57,-0.69
169.108,2.78,0.74,-0.38
169.118,2.95,1.0,-0.14
169.128,2.97,1.18,-0.01
169.138,3.05,1.28,0.02
169.148,3.09,1.4,0.11
169.158,3.1,1.53,0.29
169.168,3.17,1.65,0.42
169.179,3.27,1.73,0.45
169.188,3.31,1.89,0.38
169.199,3.38,2.01,0.34
169.209,3.45,2.14,0.33
169.219,3.45,2.16,0.33
169.229,3.32,2.1,0.34
169.239,3.28,1.83,0.37
169.249,3.1,1.46,0.4
169.259,2.74,1.07,0.46
169.269,2.49,0.64,0.47
169.279,2.15,0.2,0.37
169.289,1.73,-0.06,0.14
169.299,1.34,-0.25,-0.1
169.309,1.14,-0.3,-0.23
169.319,1.01,-0.31,-0.2
169.33,0.87,-0.33,-0.07
169.34,0.9,-0.36,0.24
169.35,1.01,-0.45,0.61
169.36,1.19,-0.47,0.85
169.37,1.48,-0.44,1.02
169.38,1.66,-0.35,1.0
169.39,1.69,-0.27,0.78
169.4,1.69,-0.22,0.42
169.41,1.75,-0.16,0.03
169.42,1.76,-0.02,-0.28
169.43,1.6,0.1,-0.52
169.441,1.34,0.09,-0.69
169.45,1.15,-0.06,-0.75
169.461,0.87,-0.28,-0.79
169.471,0.48,-0.5,-0.82
169.481,0.18,-0.75,-0.79
169.491,-0.04,-1.04,-0.69
169.501,-0.12,-1.21,-0.45
169.511,-0.24,-1.24,-0.25
169.521,-0.4,-1.23,-0.22
169.531,-0.52,-1.23,-0.26
