timestamp,ax,ay,az
241.023,0.25,-1.11,2.43
241.033,0.07,-1.27,2.43
241.043,-0.0,-1.36,2.34
241.053,-0.04,-1.26,2.1
241.063,-0.07,-0.93,1.67
241.073,-0.3,-0.63,1.11
241.083,-0.76,-0.55,0.54
241.093,-1.0,-0.55,0.22
241.104,-1.26,-0.44,0.07
241.113,-1.43,-0.38,-0.14
241.124,-1.77,-0.35,-0.08
241.134,-2.03,-0.33,0.07
241.144,-1.97,-0.19,0.03
241.154,-2.21,-0.02,0.17
241.164,-2.3,0.28,0.26
241.174,-2.32,0.71,0.43
241.184,-2.34,0.98,0.84
241.194,-2.23,1.0,1.51
241.204,-2.07,1.04,1.91
241.214,-1.85,1.14,2.13
241.225,-1.83,1.16,2.11
241.234,-1.94,1.08,1.82
241.245,-2.09,0.96,1.3
241.255,-2.3,0.87,0.77
241.265,-2.52,0.86,0.28
241.275,-2.82,0.9,-0.08
241.285,-2.99,0.94,-0.18
241.295,-2.99,1.02,0.18
241.305,-2.85,1.12,0.7
241.315,-2.59,1.12,1.14
241.325,-2.34,1.0,1.4
241.335,-2.23,0.72,1.55
241.345,-2.03,0.57,1.63
241.355,-1.8,0.57,1.68
241.366,-1.66,0.48,1.52
241.376,-1.54,0.5,1.23
241.386,-1.57,0.64,0.9
241.396,-1.59,0.72,0.56
241.406,-1.58,0.78,0.28
241.416,-1.63,0.76,0.24
241.426,-1.63,0.68,0.25
241.436,-1.63,0.53,0.33
241.446,-1.54,0.34,0.47
241.456,-1.43,0.13,0.53
241.466,-1.41,-0.04,0.58
241.476,-1.38,-0.15,0.43
241.487,-1.33,-0.16,0.23
241.496,-1.3,-0.13,-0.01
241.507,-1.28,-0.09,-0.28
241.517,-1.25,-0.01,-0.43
241.527,-1.18,0.07,-0.53
241.537,-1.09,0.08,-0.5
241.547,-1.03,0.03,-0.37
241.557,-0.9,-0.02,-0.3
241.567,-0.82,-0.03,-0.22
241.577,-0.62,-0.06,-0.16
241.587,-0.37,-0.06,-0.08
241.597,0.02,0.16,0.02
241.608,0.37,0.46,-0.07
241.617,0.66,0.76,-0.26
241.628,0.8,1.08,-0.57
241.638,0.84,1.2,-0.81
241.648,0.92,1.15,-0.81
241.658,1.07,1.08,-0.72
241.668,1.08,0.96,-0.79
241.678,0.99,0.69,-0.83
241.688,0.89,0.33,-0.76
241.698,0.75,0.03,-0.65
241.708,0.67,-0.31,-0.48
241.718,0.62,-0.55,-0.29
241.728,0.61,-0.67,-0.16
241.738,0.71,-0.71,-0.03
241.749,0.79,-0.75,0.05
241.759,0.88,-0.79,0.15
241.769,1.0,-0.77,0.24
241.779,1.21,-0.76,0.26
241.789,1.42,-0.66,0.16
241.799,1.56,-0.51,-0.13
241.809,1.59,-0.44,-0.4
241.819,1.57,-0.42,-0.56
241.829,1.53,-0.35,-0.68
241.839,1.45,-0.22,-0.66
241.849,1.35,-0.18,-0.56
241.859,1.16,-0.17,-0.45
241.87,0.97,-0.14,-0.37
241.879,0.81,-0.1,-0.34
241.89,0.61,-0.16,-0.27
241.9,0.46,-0.23,-0.12
241.91,0.32,-0.31,-0.02
241.92,0.11,-0.46,-0.02
241.93,-0.1,-0.56,0.05
241.94,-0.26,-0.61,0.11
241.95,-0.49,-0.66,0.06
241.96,-0.66,-0.65,-0.07
241.97,-0.7,-0.44,-0.19
241.98,-0.73,-0.12,-0.36
241.991,-0.74,0.15,-0.66
242.0,-0.75,0.43,-0.98
242.011,-0.73,0.73,-1.15
242.021,-0.7,0.96,-1.15
242.031,-0.71,1.15,-0.97
242.041,-0.54,1.31,-0.7
242.051,-0.49,1.45,-0.55
242.061,-0.52,1.53,-0.4
242.071,-0.59,1.5,-0.23
242.081,-0.7,1.37,0.03
242.091,-0.82,1.18,0.4
242.101,-0.88,0.9,0.99
242.112,-0.95,0.59,1.48
242.121,-1.05,0.29,1.72
242.132,-1.14,0.01,1.7
242.142,-1.23,-0.09,1.51
242.152,-1.34,-0.11,1.17
242.162,-1.39,-0.15,0.82
242.172,-1.4,-0.14,0.54
242.182,-1.34,-0.05,0.41
242.192,-1.26,-0.07,0.35
242.202,-1.2,-0.18,0.26
242.212,-1.2,-0.23,0.21
242.222,-1.19,-0.35,0.2
242.232,-1.21,-0.43,0.24
242.242,-1.23,-0.42,0.34
242.253,-1.18,-0.44,0.5
242.262,-1.14,-0.47,0.6
242.273,-1.14,-0.54,0.65
242.283,-1.07,-0.54,0.72
242.293,-0.98,-0.41,0.77
242.303,-1.01,-0.34,0.67
242.313,-1.04,-0.38,0.64
242.323,-1.02,-0.39,0.65
242.334,-0.97,-0.44,0.7
242.343,-0.88,-0.39,0.86
242.353,-0.74,-0.24,1.0
242.363,-0.7,-0.13,1.02
242.374,-0.67,-0.07,0.88
242.383,-0.53,0.02,0.81
242.394,-0.45,0.19,0.77
242.404,-0.33,0.35,0.63
242.414,-0.28,0.41,0.41
242.424,-0.26,0.46,0.19
242.434,-0.3,0.48,0.04
242.444,-0.25,0.41,0.02
242.454,-0.14,0.36,0.11
242.464,0.03,0.35,0.23
242.474,0.19,0.37,0.29
242.484,0.34,0.49,0.31
242.494,0.5,0.56,0.28
242.504,0.59,0.51,0.22
242.515,0.62,0.37,0.12
242.525,0.63,0.21,0.04
242.535,0.68,0.07,0.09
242.545,0.74,-0.1,0.2
242.555,0.76,-0.3,0.28
242.565,0.8,-0.51,0.31
242.575,0.79,-0.75,0.3
242.585,0.63,-1.06,0.31
242.595,0.56,-1.35,0.22
242.605,0.57,-1.51,0.15
242.615,0.6,-1.61,0.13
242.625,0.65,-1.64,0.02
242.636,0.79,-1.63,-0.17
242.645,0.85,-1.53,-0.36
242.656,0.84,-1.37,-0.63
242.666,0.78,-1.27,-0.91
242.676,0.71,-1.19,-1.14
242.686,0.68,-1.13,-1.23
242.696,0.58,-1.09,-1.19
242.706,0.51,-1.1,-1.11
242.716,0.58,-1.07,-1.03
242.726,0.65,-0.99,-0.96
242.736,0.72,-0.93,-0.89
242.746,0.82,-0.8,-0.97
242.756,0.99,-0.68,-1.05
242.766,1.26,-0.58,-1.03
242.777,1.58,-0.35,-1.02
242.787,1.86,-0.14,-1.06
242.797,2.16,0.1,-1.05
242.807,2.63,0.5,-0.83
242.817,3.09,1.0,-0.47
242.827,3.51,1.33,-0.18
242.837,3.78,1.61,0.1
242.847,3.98,1.73,0.46
242.857,4.23,1.69,0.82
242.867,4.46,1.62,1.05
242.877,4.48,1.5,1.06
242.887,4.27,1.28,0.73
242.898,4.02,1.01,0.23
242.908,3.83,0.78,-0.08
242.918,3.7,0.58,-0.3
242.928,3.58,0.3,-0.42
242.938,3.36,-0.02,-0.49
242.948,3.12,-0.37,-0.51
242.958,2.98,-0.6,-0.51
242.968,2.79,-0.75,-0.45
242.978,2.66,-0.82,-0.37
242.988,2.59,-0.79,-0.26
242.998,2.43,-0.73,-0.26
243.008,2.16,-0.67,-0.35
243.019,1.94,-0.63,-0.49
243.028,1.78,-0.61,-0.49
243.039,1.65,-0.67,-0.29
243.049,1.57,-0.74,-0.11
243.059,1.48,-0.77,0.02
243.069,1.43,-0.78,0.13
243.079,1.37,-0.77,0.22
243.089,1.2,-0.77,0.19
243.099,0.97,-0.77,0.1
243.109,0.78,-0.76,-0.04
243.119,0.55,-0.76,-0.1
243.129,0.25,-0.66,-0.15
243.139,-0.02,-0.61,-0.21
243.149,-0.29,-0.57,-0.19
243.16,-0.53,-0.58,-0.09
243.17,-0.75,-0.69,-0.01
243.18,-0.95,-0.68,0.14
243.19,-1.15,-0.58,0.25
243.2,-1.31,-0.54,0.33
243.21,-1.43,-0.48,0.34
243.22,-1.45,-0.27,0.28
243.23,-1.43,-0.09,0.16
243.24,-1.45,0.17,-0.09
243.25,-1.55,0.58,-0.28
243.26,-1.52,0.84,-0.29
243.27,-1.54,0.9,-0.17
243.281,-1.64,0.8,0.08
243.291,-1.6,0.49,0.45
243.301,-1.6,0.12,0.79
243.311,-1.74,-0.28,0.91
243.321,-1.91,-0.69,0.88
243.331,-2.23,-1.01,0.67
243.341,-2.59,-1.19,0.32
243.351,-2.82,-1.19,0.1
243.361,-3.09,-1.05,-0.04
243.371,-3.17,-0.94,-0.24
243.381,-3.14,-0.75,-0.29
243.391,-3.05,-0.58,-0.25
243.402,-2.89,-0.5,-0.24
243.411,-2.54,-0.31,-0.08
243.422,-2.07,-0.05,0.14
243.432,-1.51,0.17,0.42
243.442,-1.02,0.41,0.69
243.452,-0.61,0.6,0.71
243.462,-0.29,0.68,0.46
243.472,-0.13,0.8,0.09
243.482,-0.03,0.87,-0.34
243.492,0.18,1.0,-0.62
243.502,0.44,1.11,-0.78
243.512,0.77,1.21,-0.91
243.523,1.12,1.28,-0.91
243.532,1.49,1.3,-0.76
243.543,1.8,1.26,-0.51
243.553,2.16,1.24,-0.21
243.563,2.46,1.23,0.05
243.573,2.72,1.17,0.2
243.583,2.85,1.14,0.11
243.593,2.77,0.97,-0.02
243.603,2.84,0.89,0.07
243.613,2.86,0.85,0.32
243.623,2.8,0.76,0.53
243.633,2.63,0.55,0.62
243.643,2.41,0.32,0.66
243.653,2.06,0.11,0.65
243.664,1.75,-0.07,0.61
243.674,1.52,-0.18,0.51
243.684,1.32,-0.18,0.39
243.694,1.09,-0.12,0.13
243.704,0.87,-0.08,-0.15
243.714,0.66,-0.04,-0.3
243.724,0.65,-0.05,-0.32
243.734,0.8,0.04,-0.1
243.744,1.06,0.16,0.23
243.754,1.16,0.2,0.45
243.765,1.24,0.19,0.64
243.774,1.36,0.13,0.73
243.784,1.42,0.09,0.77
243.794,1.43,0.13,0.76
243.805,1.36,0.09,0.66
243.815,1.28,-0.02,0.47
243.825,1.2,-0.1,0.22
243.835,1.01,-0.21,-0.04
243.845,0.87,-0.3,-0.25
243.855,0.74,-0.42,-0.36
243.865,0.62,-0.55,-0.42
243.875,0.51,-0.71,-0.42
243.885,0.4,-0.9,-0.37
243.895,0.28,-1.07,-0.37
243.905,0.23,-1.13,-0.37
243.915,0.19,-1.16,-0.37
243.926,0.18,-1.17,-0.35
243.936,0.14,-1.09,-0.39
243.946,-0.0,-1.02,-0.55
243.956,-0.1,-1.02,-0.67
243.966,-0.15,-0.95,-0.71
243.976,-0.13,-0.89,-0.58
243.986,-0.01,-0.82,-0.27
243.996,0.0,-0.81,0.04
244.006,0.0,-0.9,0.24
244.016,0.07,-0.97,0.41
244.027,0.11,-0.96,0.56
244.036,0.12,-0.86,0.59
244.047,0.11,-0.71,0.48
244.057,0.19,-0.56,0.41
244.067,0.27,-0.45,0.46
244.077,0.29,-0.33,0.4
244.087,0.24,-0.29,0.35
244.097,0.15,-0.31,0.28
244.107,-0.03,-0.34,0.24
244.117,-0.18,-0.49,0.31
244.127,-0.33,-0.67,0.42
244.137,-0.53,-0.85,0.56
244.147,-0.69,-1.0,0.7
244.157,-0.74,-1.22,0.94
244.168,-0.78,-1.35,1.06
244.177,-0.8,-1.43,1.13
244.188,-0.75,-1.46,1.14
244.198,-0.62,-1.38,1.12
244.208,-0.49,-1.23,1.03
244.218,-0.3,-0.97,0.93
244.228,-0.2,-0.58,0.72
244.238,-0.2,-0.16,0.43
244.248,-0.4,0.06,0.14
244.258,-0.52,0.09,-0.02
244.268,-0.62,-0.0,-0.04
244.278,-0.82,-0.1,0.02
244.288,-1.2,-0.22,-0.07
244.298,-1.34,-0.02,0.01
244.309,-1.71,0.07,0.03
244.319,-2.04,0.05,0.08
244.329,-2.0,0.33,0.33
244.339,-2.14,0.6,0.54
244.349,-2.13,0.75,0.67
244.359,-1.96,0.91,0.82
244.369,-1.85,1.2,0.9
244.379,-1.58,1.54,0.92
244.389,-1.31,1.94,0.99
244.399,-1.27,2.11,0.95
244.409,-1.35,2.16,0.83
244.419,-1.48,2.27,0.83
244.43,-1.62,2.36,1.01
244.439,-1.75,2.26,1.27
244.45,-1.88,2.12,1.6
244.46,-1.94,2.03,1.89
244.47,-1.92,1.87,2.07
244.48,-1.84,1.73,2.14
244.49,-1.75,1.7,2.15
244.5,-1.64,1.61,2.08
244.51,-1.52,1.49,1.98
244.52,-1.41,1.47,1.85
244.53,-1.32,1.49,1.75
244.54,-1.29,1.42,1.64
244.551,-1.24,1.18,1.51
244.56,-1.22,0.94,1.43
244.571,-1.16,0.72,1.31
244.581,-1.11,0.5,1.12
244.591,-1.13,0.33,0.82
244.601,-1.15,0.25,0.5
244.611,-1.18,0.28,0.22
244.621,-1.25,0.33,0.04
244.631,-1.32,0.3,-0.05
244.641,-1.42,0.22,-0.07
244.651,-1.51,0.08,0.02
244.661,-1.57,-0.04,0.14
244.671,-1.53,-0.12,0.26
244.681,-1.53,-0.17,0.29
244.692,-1.56,-0.31,0.2
244.702,-1.54,-0.49,0.17
244.712,-1.53,-0.56,0.14
244.722,-1.48,-0.58,0.1
244.732,-1.37,-0.59,0.1
244.742,-1.25,-0.57,0.15
244.752,-1.02,-0.55,0.22
244.762,-0.79,-0.47,0.23
244.772,-0.58,-0.42,0.18
244.782,-0.31,-0.49,0.09
244.792,-0.09,-0.47,0.04
244.802,0.12,-0.41,-0.06
244.813,0.35,-0.37,-0.07
244.823,0.51,-0.29,-0.13
244.833,0.57,-0.17,-0.28
244.843,0.61,0.01,-0.47
244.853,0.64,0.21,-0.51
244.863,0.65,0.32,-0.51
244.873,0.65,0.36,-0.47
244.883,0.72,0.38,-0.36
244.893,0.76,0.35,-0.23
244.903,0.8,0.25,-0.12
244.913,0.85,0.13,-0.0
244.923,0.75,-0.08,0.07
244.934,0.69,-0.31,0.12
244.944,0.61,-0.48,0.16
244.954,0.57,-0.6,0.2
244.964,0.63,-0.65,0.26
244.974,0.69,-0.66,0.17
244.984,0.79,-0.7,0.03
244.994,0.93,-0.72,-0.21
245.004,0.97,-0.72,-0.51
245.014,0.94,-0.72,-0.8
245.024,0.86,-0.69,-1.09
245.034,0.67,-0.63,-1.31
245.044,0.53,-0.63,-1.38
245.055,0.4,-0.64,-1.28
245.065,0.34,-0.68,-0.95
245.075,0.31,-0.76,-0.47
245.085,0.34,-0.87,0.06
245.095,0.41,-0.99,0.41
245.105,0.44,-1.04,0.43
245.115,0.39,-1.08,0.25
245.125,0.15,-1.31,-0.0
245.135,-0.05,-1.45,-0.09
245.145,-0.21,-1.54,-0.38
245.155,-0.36,-1.54,-0.6
245.165,-0.28,-1.39,-0.71
245.176,-0.16,-1.12,-0.71
245.185,0.01,-0.58,-0.65
245.196,0.11,0.18,-0.64
245.206,0.13,1.09,-0.66
245.216,0.09,1.9,-0.66
245.226,0.02,2.56,-0.39
245.236,-0.22,2.83,0.17
245.246,-0.43,2.74,0.81
245.256,-0.36,2.61,1.81
245.266,-0.37,2.21,2.62
245.276,-0.26,1.73,3.13
245.286,-0.17,1.42,3.32
245.296,-0.24,1.11,3.0
245.306,-0.46,0.85,2.33
245.317,-0.75,0.68,1.51
245.327,-0.93,0.61,0.73
245.337,-1.02,0.54,0.25
245.347,-0.99,0.43,-0.06
245.357,-0.91,0.3,-0.06
245.367,-0.95,0.02,0.11
245.377,-1.06,-0.45,0.21
245.387,-1.2,-0.91,0.28
245.397,-1.28,-1.22,0.36
245.407,-1.33,-1.42,0.55
245.417,-1.46,-1.52,0.49
245.427,-1.45,-1.5,0.27
245.439,-1.3,-1.3,0.01
245.448,-1.21,-1.02,-0.27
245.458,-1.09,-0.95,-0.45
245.468,-1.04,-0.98,-0.43
245.478,-0.98,-0.97,-0.31
245.488,-0.84,-0.89,-0.2
245.498,-0.65,-0.66,-0.02
245.508,-0.58,-0.37,0.11
245.518,-0.43,-0.22,0.21
245.528,-0.37,0.13,0.26
245.538,-0.4,0.52,0.27
245.548,-0.26,0.7,0.37
245.558,-0.14,0.85,0.45
245.568,-0.02,1.06,0.47
245.579,0.05,1.36,0.42
245.588,0.03,1.65,0.3
245.599,0.11,1.9,0.11
245.609,0.19,2.05,-0.01
245.619,0.22,2.12,-0.16
245.629,0.28,2.1,-0.29
245.639,0.26,1.96,-0.3
245.649,0.22,1.69,-0.2
245.659,0.27,1.31,-0.04
245.669,0.37,0.92,0.22
245.679,0.23,0.4,0.35
245.689,0.16,-0.1,0.33
245.7,0.03,-0.61,0.32
245.71,-0.04,-1.07,0.2
245.72,-0.12,-1.46,0.03
245.73,-0.12,-1.77,-0.14
245.74,-0.08,-1.97,-0.28
245.75,-0.04,-2.11,-0.49
245.76,0.06,-2.16,-0.57
245.77,0.33,-2.24,-0.51
245.78,0.65,-2.3,-0.45
245.79,0.88,-2.37,-0.35
245.8,1.08,-2.53,-0.22
245.81,1.24,-2.63,-0.18
245.82,1.35,-2.65,-0.23
245.83,1.43,-2.63,-0.33
245.841,1.41,-2.52,-0.51
245.851,1.24,-2.42,-0.69
245.861,1.13,-2.32,-0.79
245.871,1.2,-2.09,-0.75
245.881,1.46,-1.63,-0.59
245.891,1.72,-1.13,-0.35
245.901,1.95,-0.71,-0.27
245.911,2.23,-0.21,-0.27
245.921,2.57,0.4,-0.13
245.931,2.88,0.81,-0.09
245.942,2.86,1.02,-0.14
245.952,2.7,1.0,-0.25
245.962,2.44,0.9,-0.28
245.972,2.32,0.96,-0.15
245.982,2.4,1.26,0.08
245.992,2.55,1.62,0.3
246.002,2.78,1.76,0.53
246.012,3.1,1.88,0.73
