timestamp,ax,ay,az
221.472,-0.15,-0.06,0.18
221.482,-0.32,0.02,0.11
221.492,-0.5,0.03,0.1
221.502,-0.82,0.07,0.08
221.512,-1.17,0.14,0.01
221.523,-1.49,0.21,-0.09
221.533,-1.84,0.32,-0.22
221.543,-2.1,0.33,-0.45
221.553,-2.26,0.23,-0.62
221.563,-2.63,0.04,-0.39
221.573,-2.54,-0.08,-0.17
221.583,-2.06,-0.05,-0.13
221.593,-1.9,-0.14,0.12
221.603,-1.8,-0.3,0.18
221.613,-1.53,-0.25,0.18
221.623,-1.4,-0.19,0.04
221.633,-1.3,-0.15,-0.19
221.644,-1.14,-0.11,-0.38
221.654,-1.14,-0.08,-0.45
221.664,-1.17,-0.12,-0.39
221.674,-1.16,-0.15,-0.23
221.684,-1.18,-0.17,0.01
221.694,-1.27,-0.22,0.2
221.704,-1.36,-0.21,0.45
221.714,-1.29,-0.19,0.67
221.724,-1.13,0.03,0.9
221.734,-0.95,0.26,1.0
221.745,-0.86,0.36,0.86
221.754,-0.84,0.46,0.6
221.764,-0.83,0.46,0.25
221.774,-0.92,0.48,-0.05
221.785,-1.0,0.44,-0.26
221.795,-1.15,0.21,-0.38
221.805,-1.24,-0.06,-0.41
221.815,-1.28,-0.22,-0.44
221.825,-1.25,-0.36,-0.43
221.835,-1.19,-0.54,-0.51
221.845,-1.15,-0.62,-0.56
221.855,-0.99,-0.6,-0.59
221.865,-0.69,-0.43,-0.59
221.876,-0.31,-0.34,-0.52
221.885,-0.02,-0.19,-0.51
221.895,0.3,0.11,-0.45
221.906,0.62,0.39,-0.28
221.916,0.95,0.68,-0.05
221.926,1.23,0.88,0.21
221.936,1.45,1.03,0.48
221.946,1.69,1.2,0.73
221.956,2.01,1.34,0.92
221.966,2.34,1.53,1.05
221.976,2.48,1.75,0.8
221.986,2.34,1.79,0.19
221.996,2.17,1.72,-0.55
222.006,2.07,1.65,-1.01
222.016,2.08,1.51,-1.12
222.027,2.17,1.32,-0.98
222.036,2.25,1.09,-0.68
222.047,2.31,0.84,-0.26
222.057,2.22,0.5,0.12
222.067,2.07,0.23,0.44
222.077,1.95,0.02,0.69
222.087,1.86,-0.17,0.81
222.097,1.58,-0.33,0.63
222.107,1.26,-0.41,0.3
222.117,0.96,-0.42,-0.09
222.127,0.68,-0.37,-0.51
222.137,0.47,-0.32,-0.74
222.148,0.39,-0.33,-0.68
222.157,0.37,-0.38,-0.31
222.168,0.53,-0.51,0.15
222.178,0.57,-0.7,0.49
222.188,0.65,-0.75,0.7
222.198,0.7,-0.75,0.89
222.208,0.57,-0.79,0.85
222.218,0.4,-0.73,0.6
222.228,0.19,-0.63,0.36
222.238,0.09,-0.56,0.19
222.248,0.1,-0.47,0.11
222.258,0.08,-0.33,0.13
222.269,0.14,-0.39,0.09
222.279,0.15,-0.55,0.06
222.289,0.11,-0.67,0.02
222.299,0.07,-0.77,-0.02
222.309,0.05,-0.88,-0.07
222.319,-0.0,-0.99,-0.05
222.329,-0.09,-1.14,-0.06
222.339,-0.15,-1.21,-0.14
222.349,-0.16,-1.09,-0.22
222.359,-0.15,-0.9,-0.32
222.369,0.07,-0.75,-0.34
222.379,0.12,-0.54,-0.41
222.39,0.2,-0.34,-0.45
222.399,0.27,-0.23,-0.45
222.41,0.36,-0.19,-0.45
222.42,0.49,-0.04,-0.33
222.43,0.53,0.09,-0.18
222.44,0.38,0.08,-0.2
222.45,0.16,0.09,-0.15
222.46,0.05,0.07,-0.02
222.47,-0.06,-0.03,0.03
222.48,-0.07,-0.03,-0.02
222.49,-0.08,0.02,-0.19
222.5,-0.24,-0.01,-0.4
222.51,-0.27,-0.08,-0.46
222.52,-0.23,-0.17,-0.39
222.531,-0.18,-0.27,-0.2
222.541,-0.18,-0.4,-0.07
222.551,-0.36,-0.54,-0.05
222.561,-0.56,-0.68,-0.08
222.571,-0.75,-0.74,-0.05
222.581,-0.83,-0.69,0.05
222.591,-0.89,-0.69,0.19
222.601,-0.9,-0.65,0.34
222.611,-0.8,-0.55,0.52
222.621,-0.56,-0.4,0.68
222.631,-0.31,-0.26,0.79
222.641,-0.12,-0.22,0.74
222.652,0.13,-0.18,0.75
222.661,0.26,-0.11,0.71
222.672,0.28,-0.05,0.49
222.682,0.08,-0.11,0.14
222.692,-0.22,-0.11,-0.17
222.702,-0.49,-0.1,-0.28
222.712,-0.63,-0.13,-0.07
222.722,-0.7,-0.16,0.27
222.732,-0.91,-0.18,0.45
222.742,-1.1,-0.16,0.68
222.752,-1.29,-0.08,0.93
222.762,-1.38,0.2,1.15
222.772,-1.36,0.65,1.35
222.782,-1.08,1.17,1.52
222.793,-0.71,1.71,1.63
222.803,-0.52,2.21,1.65
222.813,-0.35,2.54,1.63
222.823,-0.17,2.58,1.57
222.833,-0.12,2.44,1.45
222.843,-0.18,2.23,1.31
222.853,-0.39,1.97,0.99
222.863,-0.84,1.7,0.47
222.873,-1.4,1.41,0.05
222.883,-1.85,1.09,-0.22
222.894,-2.22,0.88,-0.38
222.903,-2.51,0.73,-0.44
222.914,-2.66,0.53,-0.34
222.924,-2.62,0.36,-0.04
222.934,-2.43,0.11,0.35
222.944,-2.22,-0.18,0.71
222.954,-2.08,-0.47,0.88
222.964,-1.92,-0.71,1.11
222.974,-1.77,-0.89,1.33
222.984,-1.67,-1.03,1.36
222.994,-1.62,-1.0,1.23
223.004,-1.64,-0.89,0.86
223.014,-1.63,-0.84,0.44
223.024,-1.54,-0.85,0.1
223.035,-1.46,-0.88,-0.11
223.044,-1.39,-0.93,-0.18
223.055,-1.37,-0.99,-0.18
223.065,-1.45,-1.03,-0.14
223.075,-1.23,-0.98,-0.04
223.085,-0.95,-0.93,0.3
223.095,-1.1,-0.74,0.55
223.105,-1.15,-0.67,0.62
223.115,-1.32,-0.6,0.58
223.125,-1.47,-0.55,0.57
223.135,-1.41,-0.54,0.66
223.145,-1.31,-0.42,0.82
223.155,-1.23,-0.26,0.95
223.165,-1.12,-0.15,1.0
223.176,-1.03,-0.1,0.97
223.186,-0.98,-0.06,0.9
223.196,-0.86,0.01,0.95
223.206,-0.72,-0.0,0.72
223.216,-0.69,0.0,0.51
223.226,-0.65,0.05,0.34
223.236,-0.68,0.03,0.0
223.246,-0.76,0.08,-0.37
223.256,-0.77,0.22,-0.63
223.266,-0.67,0.41,-0.74
223.276,-0.43,0.53,-0.66
223.286,-0.08,0.64,-0.33
223.297,0.33,0.76,0.0
223.307,0.68,0.81,0.15
223.317,0.93,0.89,0.18
223.327,1.16,1.0,0.17
223.337,1.41,1.17,0.14
223.347,1.62,1.29,0.06
223.357,1.74,1.3,-0.05
223.367,1.81,1.25,-0.23
223.377,1.73,1.04,-0.45
223.387,1.7,0.68,-0.46
223.397,1.67,0.37,-0.3
223.407,1.54,0.01,-0.17
223.417,1.43,-0.37,-0.09
223.428,1.24,-0.71,-0.06
223.438,1.07,-1.01,-0.04
223.448,0.92,-1.27,0.01
223.458,0.86,-1.45,0.06
223.468,0.82,-1.5,0.03
223.478,0.81,-1.55,0.01
223.488,0.87,-1.56,0.0
223.498,0.93,-1.49,-0.05
223.508,1.09,-1.28,-0.21
223.518,1.26,-1.07,-0.37
223.528,1.29,-0.89,-0.62
223.538,1.19,-0.7,-0.88
223.548,1.03,-0.55,-1.0
223.559,0.97,-0.44,-1.02
223.569,0.91,-0.34,-0.85
223.579,0.85,-0.22,-0.57
223.589,0.85,-0.14,-0.32
223.599,0.8,-0.1,-0.07
223.609,0.67,-0.1,0.09
223.619,0.56,-0.12,0.18
223.629,0.41,-0.05,0.12
223.639,0.25,0.12,-0.01
223.649,0.09,0.35,-0.21
223.659,-0.06,0.52,-0.43
223.669,-0.25,0.69,-0.65
223.68,-0.42,0.77,-0.84
223.689,-0.57,0.73,-1.0
223.7,-0.71,0.69,-1.05
223.71,-0.78,0.72,-1.0
223.72,-0.91,0.8,-0.91
223.73,-1.15,0.92,-0.76
223.74,-1.37,0.99,-0.51
223.75,-1.38,1.02,-0.02
223.76,-1.13,1.09,0.68
223.77,-0.78,1.07,1.27
223.78,-0.43,0.86,1.67
223.79,-0.09,0.59,1.78
223.8,0.03,0.39,1.61
223.81,-0.09,0.23,1.17
223.821,-0.34,0.13,0.47
223.831,-0.66,0.09,-0.07
223.841,-0.85,0.19,-0.3
223.851,-1.03,0.36,-0.39
223.861,-1.1,0.42,-0.3
223.871,-1.0,0.49,-0.04
223.881,-0.9,0.42,0.38
223.891,-0.74,0.21,0.59
223.901,-0.61,0.08,0.63
223.911,-0.58,0.04,0.55
223.921,-0.67,-0.07,0.24
223.931,-0.86,-0.1,-0.02
223.941,-0.99,-0.14,-0.16
223.952,-1.12,-0.16,-0.23
223.962,-1.34,-0.09,-0.27
223.972,-1.42,-0.16,-0.18
223.982,-1.32,-0.26,-0.01
223.992,-1.18,-0.23,0.23
224.002,-1.0,-0.22,0.4
224.012,-0.77,-0.25,0.62
224.022,-0.61,-0.3,0.82
224.032,-0.46,-0.39,0.98
224.042,-0.34,-0.35,1.06
224.052,-0.23,-0.25,1.11
224.063,-0.04,-0.24,1.09
224.072,0.08,-0.22,0.94
224.083,-0.05,-0.24,0.71
224.093,-0.15,-0.3,0.53
224.103,-0.14,-0.35,0.3
224.113,-0.27,-0.41,0.22
224.123,-0.32,-0.55,0.15
224.133,-0.41,-0.67,0.22
224.143,-0.36,-0.73,0.48
224.153,-0.15,-0.74,0.82
224.163,0.17,-0.68,1.14
224.173,0.45,-0.65,1.39
224.183,0.6,-0.57,1.47
224.194,0.78,-0.48,1.38
224.204,1.07,-0.36,1.13
224.214,1.32,-0.2,0.75
224.224,1.3,-0.18,0.35
224.234,1.26,-0.2,0.06
224.244,1.16,-0.2,-0.1
224.254,1.16,-0.26,-0.14
224.264,1.23,-0.17,-0.06
224.274,1.23,-0.15,0.03
224.284,1.14,-0.28,-0.09
224.294,1.0,-0.42,-0.28
224.304,0.89,-0.51,-0.48
224.314,0.81,-0.55,-0.69
224.325,0.75,-0.48,-0.88
224.335,0.57,-0.38,-1.09
224.345,0.52,-0.3,-1.22
224.355,0.66,-0.25,-1.14
224.365,0.74,-0.3,-1.04
224.375,0.8,-0.5,-0.88
224.385,0.89,-0.79,-0.69
224.395,0.92,-1.2,-0.44
224.405,0.98,-1.55,-0.24
224.415,1.03,-1.71,-0.23
224.425,1.23,-1.64,-0.33
224.435,1.81,-1.33,-0.61
224.446,2.32,-0.81,-0.92
224.455,2.56,-0.44,-1.27
224.466,2.85,-0.23,-1.6
224.476,3.07,-0.01,-1.85
224.486,3.19,0.26,-2.04
224.496,3.2,0.5,-2.08
224.506,3.2,0.86,-1.96
224.516,3.21,1.21,-1.56
224.526,3.22,1.44,-1.11
224.536,3.12,1.61,-0.77
224.546,2.98,1.74,-0.5
224.556,2.85,1.76,-0.42
224.566,2.67,1.66,-0.48
224.576,2.71,1.63,-0.58
224.587,2.73,1.63,-0.74
224.597,2.66,1.63,-0.87
224.607,2.58,1.53,-1.0
224.617,2.48,1.38,-1.0
224.627,2.34,1.22,-0.86
224.637,2.11,1.03,-0.72
224.647,1.83,0.74,-0.56
224.657,1.52,0.46,-0.39
224.667,1.3,0.27,-0.13
224.677,1.18,0.16,0.1
224.687,1.0,-0.02,0.17
224.697,0.83,-0.16,0.08
224.708,0.71,-0.23,0.0
224.717,0.66,-0.27,-0.03
224.728,0.65,-0.26,-0.16
224.738,0.57,-0.27,-0.33
224.748,0.53,-0.25,-0.58
224.758,0.39,-0.29,-0.78
224.768,0.26,-0.34,-0.89
224.778,0.22,-0.37,-0.91
224.788,0.16,-0.42,-0.89
224.798,0.1,-0.45,-0.84
224.808,0.06,-0.47,-0.71
224.818,0.15,-0.5,-0.62
224.829,0.21,-0.46,-0.6
224.838,0.22,-0.34,-0.64
224.849,0.21,-0.25,-0.59
224.859,0.3,-0.22,-0.46
224.869,0.42,-0.22,-0.24
224.879,0.41,-0.18,-0.03
224.889,0.42,-0.16,0.08
224.899,0.34,-0.14,0.22
224.909,0.27,-0.11,0.29
224.919,0.21,-0.1,0.31
224.929,0.13,-0.03,0.32
224.939,-0.1,0.08,0.19
224.949,-0.43,0.13,0.04
224.959,-0.71,0.18,-0.07
224.97,-0.93,0.31,-0.12
224.98,-1.12,0.47,-0.08
224.99,-1.28,0.44,0.01
225.0,-1.33,0.33,0.21
225.01,-1.47,0.17,0.52
225.02,-1.57,0.01,0.83
225.03,-1.66,-0.24,1.05
225.04,-1.86,-0.64,1.28
225.05,-2.07,-0.98,1.47
225.06,-2.21,-1.08,1.59
225.07,-2.43,-1.1,1.51
225.08,-2.58,-1.05,1.33
225.091,-2.61,-0.87,1.15
225.1,-2.64,-0.65,0.99
225.111,-2.73,-0.45,0.85
225.121,-2.66,-0.46,0.77
225.131,-2.6,-0.54,0.67
225.141,-2.5,-0.58,0.68
225.151,-2.31,-0.66,0.76
225.161,-2.0,-0.71,0.98
225.171,-1.76,-0.72,1.13
225.181,-1.61,-0.72,1.2
225.191,-1.45,-0.59,1.14
225.201,-1.25,-0.42,0.95
225.212,-0.97,-0.23,0.75
225.221,-0.66,0.07,0.52
225.232,-0.49,0.24,0.31
225.242,-0.32,0.26,0.13
225.252,-0.13,0.27,0.0
225.262,-0.02,0.27,-0.13
225.272,-0.13,0.13,-0.34
225.282,-0.41,-0.05,-0.57
225.292,-0.67,-0.15,-0.69
225.302,-0.77,-0.12,-0.69
225.312,-0.65,0.04,-0.69
225.322,-0.4,0.38,-0.76
225.332,-0.13,0.79,-0.72
225.342,0.37,1.32,-0.63
225.353,0.92,1.85,-0.64
225.363,1.39,2.2,-0.69
225.373,1.78,2.37,-0.79
225.383,2.13,2.33,-0.89
225.393,2.29,2.27,-0.92
225.403,2.41,2.19,-0.89
225.413,2.49,1.97,-0.75
225.423,2.56,1.82,-0.42
225.433,2.52,1.66,-0.09
225.443,2.47,1.38,0.18
225.453,2.39,1.07,0.44
225.463,2.32,0.81,0.57
225.474,2.17,0.59,0.59
225.484,1.95,0.44,0.34
225.494,1.68,0.3,-0.18
225.504,1.3,0.14,-0.76
225.514,1.01,0.01,-1.1
225.524,0.86,-0.1,-1.18
225.534,0.74,-0.14,-1.06
225.544,0.72,-0.19,-0.83
225.554,0.78,-0.19,-0.55
225.564,0.79,-0.19,-0.3
225.574,0.85,-0.23,-0.13
225.584,0.81,-0.22,-0.06
225.595,0.79,-0.19,-0.05
225.605,0.76,-0.3,0.05
225.615,0.73,-0.37,0.21
225.625,0.71,-0.44,0.34
225.635,0.78,-0.52,0.45
225.645,0.81,-0.59,0.48
225.655,0.7,-0.76,0.37
225.665,0.62,-0.98,0.23
225.675,0.55,-1.19,0.06
225.685,0.49,-1.39,-0.01
225.695,0.47,-1.53,-0.03
225.705,0.46,-1.57,-0.01
225.715,0.45,-1.65,-0.04
225.726,0.34,-1.77,-0.12
225.736,0.24,-1.83,-0.27
225.746,0.15,-1.87,-0.34
225.756,0.12,-1.84,-0.39
225.766,0.18,-1.65,-0.42
225.776,0.2,-1.48,-0.38
225.786,0.23,-1.4,-0.35
225.796,0.22,-1.3,-0.34
225.806,0.15,-1.15,-0.35
225.816,0.16,-0.88,-0.35
225.826,0.23,-0.63,-0.25
225.836,0.17,-0.4,-0.11
225.846,0.21,-0.12,0.12
225.857,0.22,0.03,0.38
225.867,0.29,0.13,0.6
225.877,0.35,0.27,0.66
225.887,0.44,0.38,0.62
225.897,0.49,0.41,0.49
225.907,0.48,0.34,0.37
225.917,0.44,0.27,0.25
225.927,0.35,0.13,0.11
225.937,0.18,-0.1,0.01
225.947,-0.03,-0.29,-0.02
225.957,-0.39,-0.44,-0.07
225.967,-0.69,-0.67,-0.06
225.978,-0.89,-0.87,0.02
225.987,-1.03,-1.03,0.17
225.998,-1.11,-1.19,0.36
226.008,-1.16,-1.28,0.51
226.018,-1.13,-1.32,0.67
226.028,-1.08,-1.3,0.78
226.038,-1.09,-1.29,0.8
226.048,-1.15,-1.25,0.72
226.058,-1.32,-1.12,0.6
226.068,-1.47,-0.98,0.4
226.078,-1.43,-0.8,0.27
226.088,-1.36,-0.51,0.29
226.099,-1.32,-0.23,0.45
226.108,-1.13,-0.2,0.69
226.119,-0.94,-0.34,1.11
226.129,-0.78,-0.46,1.49
226.139,-0.79,-0.61,1.7
226.149,-0.87,-0.7,1.94
226.159,-0.98,-0.53,2.01
226.169,-1.32,-0.15,1.71
226.179,-1.88,0.42,1.14
226.189,-2.4,1.13,0.62
226.199,-2.78,1.99,0.4
226.209,-2.93,2.84,0.52
226.22,-2.89,3.57,0.93
226.23,-2.53,4.05,1.39
226.24,-2.02,4.19,1.78
226.25,-1.65,4.14,2.07
226.26,-1.14,3.9,2.24
226.27,-0.69,3.68,2.29
226.28,-0.46,3.37,2.17
226.29,-0.43,2.93,1.85
226.3,-0.64,2.49,1.23
226.31,-0.98,2.03,0.68
226.32,-1.47,1.58,0.18
226.33,-1.99,1.17,-0.45
226.34,-2.42,0.81,-0.86
226.35,-2.68,0.51,-0.99
226.361,-2.72,0.21,-0.76
226.37,-2.34,-0.13,-0.22
226.381,-1.89,-0.34,0.28
226.391,-1.5,-0.37,0.57
226.401,-1.1,-0.47,0.63
226.411,-1.02,-0.55,0.75
226.421,-0.82,-0.62,0.63
226.431,-0.66,-0.6,0.67
226.441,-0.53,-0.58,0.64
226.451,-0.47,-0.62,0.59
226.461,-0.4,-0.75,0.4
